Si3N4 Density=3.44 Alpha=0.5 Thickness=50.nm
 Photon Energy (eV), Efficiency
   50.0000  0.117317
   50.1615  0.117005
   50.3236  0.116691
   50.4861  0.116376
   50.6492  0.116048
   50.8129  0.115710
   50.9770  0.115371
   51.1417  0.115030
   51.3069  0.114688
   51.4727  0.114324
   51.6390  0.113945
   51.8058  0.113564
   51.9731  0.113182
   52.1410  0.112799
   52.3095  0.112359
   52.4785  0.111883
   52.6480  0.111406
   52.8181  0.110927
   52.9887  0.110448
   53.1599  0.109966
   53.3316  0.109485
   53.5039  0.109004
   53.6768  0.108525
   53.8502  0.108047
   54.0241  0.107722
   54.1987  0.107474
   54.3737  0.107225
   54.5494  0.106975
   54.7256  0.106724
   54.9024  0.106409
   55.0798  0.106063
   55.2577  0.105717
   55.4362  0.105371
   55.6153  0.105024
   55.7950  0.104673
   55.9752  0.104320
   56.1561  0.103967
   56.3375  0.103613
   56.5195  0.103259
   56.7021  0.102899
   56.8853  0.102535
   57.0690  0.102172
   57.2534  0.101808
   57.4383  0.101444
   57.6239  0.101074
   57.8101  0.100701
   57.9968  0.100329
   58.1842  9.995584E-02
   58.3721  9.958293E-02
   58.5607  9.920243E-02
   58.7499  9.881990E-02
   58.9397  9.843729E-02
   59.1301  9.805464E-02
   59.3211  9.767200E-02
   59.5128  9.728241E-02
   59.7050  9.689132E-02
   59.8979  9.650032E-02
   60.0914  9.610945E-02
   60.2855  9.571871E-02
   60.4803  9.533022E-02
   60.6757  9.494226E-02
   60.8717  9.455448E-02
   61.0683  9.416690E-02
   61.2656  9.377949E-02
   61.4635  9.339195E-02
   61.6621  9.300451E-02
   61.8613  9.261731E-02
   62.0611  9.223033E-02
   62.2616  9.184361E-02
   62.4628  9.145081E-02
   62.6645  9.105757E-02
   62.8670  9.066471E-02
   63.0701  9.027219E-02
   63.2738  8.988006E-02
   63.4782  8.948702E-02
   63.6833  8.909430E-02
   63.8890  8.870202E-02
   64.0954  8.831022E-02
   64.3025  8.791886E-02
   64.5102  8.753511E-02
   64.7186  8.715229E-02
   64.9277  8.676992E-02
   65.1375  8.638803E-02
   65.3479  8.600669E-02
   65.5590  8.562161E-02
   65.7708  8.523693E-02
   65.9833  8.485276E-02
   66.1964  8.446920E-02
   66.4103  8.408616E-02
   66.6248  8.369226E-02
   66.8400  8.329898E-02
   67.0560  8.290639E-02
   67.2726  8.251448E-02
   67.4899  8.212318E-02
   67.7080  8.172827E-02
   67.9267  8.133410E-02
   68.1461  8.094073E-02
   68.3663  8.054814E-02
   68.5871  8.015647E-02
   68.8087  7.976822E-02
   69.0310  7.938078E-02
   69.2540  7.899414E-02
   69.4777  7.860833E-02
   69.7022  7.822389E-02
   69.9274  7.784756E-02
   70.1533  7.747196E-02
   70.3799  7.709710E-02
   70.6073  7.672302E-02
   70.8354  7.634734E-02
   71.0642  7.595018E-02
   71.2938  7.555382E-02
   71.5241  7.515834E-02
   71.7551  7.476375E-02
   71.9870  7.436661E-02
   72.2195  7.394556E-02
   72.4528  7.352561E-02
   72.6869  7.310678E-02
   72.9217  7.268908E-02
   73.1573  7.227053E-02
   73.3936  7.184149E-02
   73.6307  7.141373E-02
   73.8686  7.098725E-02
   74.1072  7.056209E-02
   74.3466  7.013718E-02
   74.5868  6.970851E-02
   74.8278  6.928111E-02
   75.0695  6.885501E-02
   75.3120  6.843025E-02
   75.5553  6.799882E-02
   75.7994  6.753642E-02
   76.0443  6.707557E-02
   76.2899  6.661634E-02
   76.5364  6.615871E-02
   76.7836  6.569276E-02
   77.0317  6.519394E-02
   77.2805  6.469717E-02
   77.5302  6.420247E-02
   77.7807  6.370988E-02
   78.0319  6.321080E-02
   78.2840  6.268813E-02
   78.5369  6.216795E-02
   78.7906  6.165024E-02
   79.0452  6.113504E-02
   79.3005  6.061222E-02
   79.5567  6.006541E-02
   79.8137  5.952179E-02
   80.0716  5.898142E-02
   80.3302  5.844427E-02
   80.5897  5.790854E-02
   80.8501  5.737174E-02
   81.1113  5.683827E-02
   81.3733  5.630809E-02
   81.6362  5.578122E-02
   81.8999  5.525006E-02
   82.1645  5.470656E-02
   82.4299  5.416667E-02
   82.6962  5.363033E-02
   82.9634  5.309762E-02
   83.2314  5.255394E-02
   83.5003  5.198716E-02
   83.7700  5.142450E-02
   84.0406  5.086599E-02
   84.3121  5.031163E-02
   84.5845  4.975006E-02
   84.8578  4.917414E-02
   85.1319  4.860291E-02
   85.4069  4.803633E-02
   85.6828  4.747440E-02
   85.9596  4.690899E-02
   86.2373  4.633621E-02
   86.5159  4.576838E-02
   86.7954  4.520547E-02
   87.0758  4.464748E-02
   87.3571  4.407797E-02
   87.6393  4.349166E-02
   87.9224  4.291083E-02
   88.2065  4.233548E-02
   88.4914  4.176559E-02
   88.7773  4.117997E-02
   89.0641  4.057458E-02
   89.3518  3.997543E-02
   89.6405  3.938250E-02
   89.9301  3.879572E-02
   90.2206  3.818635E-02
   90.5121  3.755238E-02
   90.8045  3.692570E-02
   91.0978  3.630630E-02
   91.3921  3.569413E-02
   91.6873  3.505244E-02
   91.9835  3.438272E-02
   92.2807  3.372178E-02
   92.5788  3.306960E-02
   92.8779  3.242612E-02
   93.1779  3.173972E-02
   93.4790  3.101756E-02
   93.7809  3.030649E-02
   94.0839  2.960646E-02
   94.3878  2.891737E-02
   94.6928  2.815533E-02
   94.9987  2.733994E-02
   95.3056  2.654011E-02
   95.6135  2.575573E-02
   95.9223  2.498671E-02
   96.2322  2.407496E-02
   96.5431  2.307245E-02
   96.8550  2.209683E-02
   97.1679  2.114792E-02
   97.4818  2.022552E-02
   97.7967  1.887389E-02
   98.1126  1.729689E-02
   98.4296  1.580549E-02
   98.7476  1.439919E-02
   99.0666  1.307740E-02
   99.3866  1.091922E-02
   99.7077  7.568056E-03
   100.030  1.049521E-02
   100.353  1.224266E-02
   100.677  1.749390E-02
   101.002  2.334671E-02
   101.329  2.612209E-02
   101.656  2.776071E-02
   101.984  2.655189E-02
   102.314  2.472415E-02
   102.644  2.522400E-02
   102.976  2.460751E-02
   103.309  2.468559E-02
   103.642  2.341261E-02
   103.977  2.265457E-02
   104.313  2.180672E-02
   104.650  2.108175E-02
   104.988  2.034851E-02
   105.327  1.979231E-02
   105.668  1.960073E-02
   106.009  2.039522E-02
   106.351  2.082304E-02
   106.695  2.127134E-02
   107.040  2.180026E-02
   107.386  2.198330E-02
   107.732  2.230093E-02
   108.080  2.260640E-02
   108.430  2.292484E-02
   108.780  2.313868E-02
   109.131  2.321559E-02
   109.484  2.309415E-02
   109.838  2.310449E-02
   110.192  2.316194E-02
   110.548  2.333536E-02
   110.906  2.358148E-02
   111.264  2.384912E-02
   111.623  2.409925E-02
   111.984  2.429919E-02
   112.346  2.450159E-02
   112.709  2.463787E-02
   113.073  2.472529E-02
   113.438  2.481485E-02
   113.804  2.490660E-02
   114.172  2.501635E-02
   114.541  2.515737E-02
   114.911  2.535404E-02
   115.282  2.566448E-02
   115.655  2.605502E-02
   116.028  2.650846E-02
   116.403  2.697077E-02
   116.779  2.744197E-02
   117.156  2.796819E-02
   117.535  2.855998E-02
   117.915  2.909544E-02
   118.295  2.954520E-02
   118.678  2.998707E-02
   119.061  3.042353E-02
   119.446  3.072797E-02
   119.831  3.098808E-02
   120.219  3.124085E-02
   120.607  3.149379E-02
   120.997  3.174704E-02
   121.387  3.200059E-02
   121.780  3.231693E-02
   122.173  3.262913E-02
   122.568  3.286228E-02
   122.964  3.309627E-02
   123.361  3.333102E-02
   123.759  3.350209E-02
   124.159  3.366801E-02
   124.560  3.386830E-02
   124.963  3.401754E-02
   125.366  3.412855E-02
   125.771  3.423529E-02
   126.178  3.434172E-02
   126.585  3.444782E-02
   126.994  3.455359E-02
   127.405  3.471027E-02
   127.816  3.487744E-02
   128.229  3.504729E-02
   128.643  3.521835E-02
   129.059  3.539206E-02
   129.476  3.556541E-02
   129.894  3.589059E-02
   130.314  3.622632E-02
   130.735  3.656190E-02
   131.157  3.689763E-02
   131.581  3.724067E-02
   132.006  3.761602E-02
   132.432  3.799400E-02
   132.860  3.837397E-02
   133.289  3.873890E-02
   133.720  3.898391E-02
   134.152  3.912437E-02
   134.585  3.921092E-02
   135.020  3.904636E-02
   135.456  3.888857E-02
   135.894  3.873749E-02
   136.333  3.854423E-02
   136.773  3.829241E-02
   137.215  3.795676E-02
   137.658  3.764215E-02
   138.103  3.747101E-02
   138.549  3.730060E-02
   138.997  3.713089E-02
   139.446  3.696172E-02
   139.896  3.684755E-02
   140.348  3.685091E-02
   140.802  3.687109E-02
   141.257  3.688319E-02
   141.713  3.682808E-02
   142.171  3.668770E-02
   142.630  3.652068E-02
   143.091  3.635054E-02
   143.553  3.628903E-02
   144.017  3.623111E-02
   144.482  3.623232E-02
   144.949  3.623340E-02
   145.417  3.636289E-02
   145.887  3.641904E-02
   146.358  3.649919E-02
   146.831  3.656453E-02
   147.305  3.666708E-02
   147.781  3.674474E-02
   148.259  3.683241E-02
   148.738  3.690171E-02
   149.218  3.691279E-02
   149.700  3.685793E-02
   150.184  3.670062E-02
   150.669  3.659327E-02
   151.156  3.670169E-02
   151.644  3.708100E-02
   152.134  3.761538E-02
   152.625  3.802353E-02
   153.118  3.821171E-02
   153.613  3.829155E-02
   154.109  3.798047E-02
   154.607  3.765409E-02
   155.107  3.725446E-02
   155.608  3.689263E-02
   156.110  3.665936E-02
   156.615  3.652847E-02
   157.121  3.644776E-02
   157.628  3.635114E-02
   158.137  3.630382E-02
   158.648  3.645599E-02
   159.161  3.647687E-02
   159.675  3.652896E-02
   160.191  3.660261E-02
   160.708  3.671323E-02
   161.228  3.682328E-02
   161.748  3.693307E-02
   162.271  3.704260E-02
   162.795  3.723183E-02
   163.321  3.748174E-02
   163.849  3.772877E-02
   164.378  3.797460E-02
   164.909  3.819695E-02
   165.442  3.841260E-02
   165.976  3.863712E-02
   166.512  3.885566E-02
   167.050  3.883543E-02
   167.590  3.907263E-02
   168.131  3.945279E-02
   168.675  3.983426E-02
   169.219  4.019008E-02
   169.766  4.050861E-02
   170.315  4.080271E-02
   170.865  4.108170E-02
   171.417  4.136615E-02
   171.971  4.135794E-02
   172.526  4.132309E-02
   173.083  4.137804E-02
   173.643  4.155479E-02
   174.204  4.140588E-02
   174.766  4.120401E-02
   175.331  4.094460E-02
   175.897  4.068949E-02
   176.466  4.034841E-02
   177.036  4.011375E-02
   177.608  3.985978E-02
   178.181  3.961990E-02
   178.757  3.930506E-02
   179.334  3.896418E-02
   179.914  3.855243E-02
   180.495  3.847772E-02
   181.078  3.846227E-02
   181.663  3.844686E-02
   182.250  3.843146E-02
   182.839  3.841583E-02
   183.429  3.828122E-02
   184.022  3.813300E-02
   184.616  3.798520E-02
   185.213  3.783784E-02
   185.811  3.769067E-02
   186.411  3.757959E-02
   187.014  3.747186E-02
   187.618  3.736437E-02
   188.224  3.725714E-02
   188.832  3.714990E-02
   189.442  3.704557E-02
   190.054  3.694166E-02
   190.668  3.683800E-02
   191.284  3.673458E-02
   191.902  3.663118E-02
   192.522  3.652640E-02
   193.144  3.642181E-02
   193.768  3.631748E-02
   194.394  3.621342E-02
   195.022  3.610933E-02
   195.652  3.600371E-02
   196.284  3.589832E-02
   196.918  3.579320E-02
   197.554  3.568833E-02
   198.192  3.558335E-02
   198.833  3.547359E-02
   199.475  3.536412E-02
   200.119  3.525494E-02
   200.766  3.514602E-02
   201.414  3.503697E-02
   202.065  3.492536E-02
   202.718  3.481401E-02
   203.373  3.470293E-02
   204.030  3.459213E-02
   204.689  3.448178E-02
   205.350  3.437766E-02
   206.013  3.427374E-02
   206.679  3.417006E-02
   207.347  3.406659E-02
   208.016  3.396340E-02
   208.688  3.386350E-02
   209.363  3.376381E-02
   210.039  3.366433E-02
   210.718  3.356503E-02
   211.398  3.346588E-02
   212.081  3.336854E-02
   212.766  3.327140E-02
   213.454  3.317445E-02
   214.143  3.307769E-02
   214.835  3.298198E-02
   215.529  3.289316E-02
   216.225  3.280448E-02
   216.924  3.271597E-02
   217.625  3.262757E-02
   218.328  3.254025E-02
   219.033  3.245828E-02
   219.741  3.237644E-02
   220.451  3.229472E-02
   221.163  3.221311E-02
   221.877  3.212920E-02
   222.594  3.203756E-02
   223.313  3.194619E-02
   224.034  3.185506E-02
   224.758  3.176419E-02
   225.484  3.167044E-02
   226.213  3.156840E-02
   226.944  3.146665E-02
   227.677  3.136522E-02
   228.412  3.126409E-02
   229.150  3.116136E-02
   229.890  3.105473E-02
   230.633  3.094843E-02
   231.378  3.084246E-02
   232.126  3.073683E-02
   232.875  3.063002E-02
   233.628  3.052092E-02
   234.383  3.041217E-02
   235.140  3.030378E-02
   235.899  3.019573E-02
   236.661  3.008670E-02
   237.426  2.997621E-02
   238.193  2.986608E-02
   238.962  2.975631E-02
   239.734  2.964690E-02
   240.509  2.953682E-02
   241.286  2.942611E-02
   242.065  2.931578E-02
   242.847  2.920582E-02
   243.632  2.909620E-02
   244.419  2.898723E-02
   245.209  2.888021E-02
   246.001  2.877352E-02
   246.795  2.866719E-02
   247.593  2.856116E-02
   248.393  2.845334E-02
   249.195  2.834330E-02
   250.000  2.823366E-02
   250.000  2.823366E-02
   250.295  2.819371E-02
   250.590  2.815382E-02
   250.885  2.811398E-02
   251.181  2.807421E-02
   251.477  2.803447E-02
   251.773  2.799462E-02
   252.070  2.795476E-02
   252.367  2.791281E-02
   252.664  2.787067E-02
   252.962  2.782857E-02
   253.260  2.778653E-02
   253.559  2.774456E-02
   253.858  2.770263E-02
   254.157  2.766078E-02
   254.456  2.761898E-02
   254.756  2.757725E-02
   255.057  2.753557E-02
   255.357  2.749395E-02
   255.658  2.745235E-02
   255.960  2.741059E-02
   256.261  2.736853E-02
   256.563  2.732552E-02
   256.866  2.728257E-02
   257.168  2.723968E-02
   257.472  2.719685E-02
   257.775  2.715408E-02
   258.079  2.711138E-02
   258.383  2.706873E-02
   258.688  2.702615E-02
   258.992  2.698364E-02
   259.298  2.694119E-02
   259.603  2.689879E-02
   259.909  2.685633E-02
   260.216  2.681381E-02
   260.522  2.677066E-02
   260.829  2.672720E-02
   261.137  2.668381E-02
   261.445  2.664047E-02
   261.753  2.659722E-02
   262.061  2.655402E-02
   262.370  2.651088E-02
   262.679  2.646781E-02
   262.989  2.642481E-02
   263.299  2.638187E-02
   263.609  2.633899E-02
   263.920  2.629619E-02
   264.231  2.625320E-02
   264.542  2.621023E-02
   264.854  2.616649E-02
   265.166  2.612282E-02
   265.479  2.607923E-02
   265.792  2.603570E-02
   266.105  2.599222E-02
   266.419  2.594882E-02
   266.733  2.590550E-02
   267.047  2.586223E-02
   267.362  2.581904E-02
   267.677  2.577591E-02
   267.992  2.573284E-02
   268.308  2.568975E-02
   268.625  2.564653E-02
   268.941  2.560310E-02
   269.258  2.555929E-02
   269.575  2.551556E-02
   269.893  2.547189E-02
   270.211  2.542829E-02
   270.530  2.538476E-02
   270.849  2.534130E-02
   271.168  2.529791E-02
   271.487  2.525459E-02
   271.807  2.521133E-02
   272.128  2.516815E-02
   272.449  2.512503E-02
   272.770  2.508178E-02
   273.091  2.503849E-02
   273.413  2.499478E-02
   273.735  2.495100E-02
   274.058  2.490729E-02
   274.381  2.486365E-02
   274.704  2.482009E-02
   275.028  2.477659E-02
   275.352  2.473316E-02
   275.677  2.468980E-02
   276.002  2.464651E-02
   276.327  2.460330E-02
   276.653  2.456015E-02
   276.979  2.451706E-02
   277.305  2.447371E-02
   277.632  2.443038E-02
   277.959  2.438666E-02
   278.287  2.434301E-02
   278.615  2.429943E-02
   278.943  2.425593E-02
   279.272  2.421251E-02
   279.601  2.416915E-02
   279.931  2.412586E-02
   280.261  2.408264E-02
   280.591  2.403950E-02
   280.922  2.399643E-02
   281.253  2.395343E-02
   281.584  2.391035E-02
   281.916  2.386713E-02
   282.248  2.382377E-02
   282.581  2.378028E-02
   282.914  2.373686E-02
   283.248  2.369351E-02
   283.581  2.365023E-02
   283.916  2.360704E-02
   284.250  2.356391E-02
   284.585  2.352085E-02
   284.921  2.347787E-02
   285.257  2.343496E-02
   285.593  2.339212E-02
   285.929  2.334935E-02
   286.266  2.330635E-02
   286.604  2.326337E-02
   286.942  2.322016E-02
   287.280  2.317701E-02
   287.618  2.313392E-02
   287.957  2.309092E-02
   288.297  2.304798E-02
   288.637  2.300512E-02
   288.977  2.296233E-02
   289.317  2.291962E-02
   289.658  2.287698E-02
   290.000  2.283441E-02
   290.342  2.279192E-02
   290.684  2.274941E-02
   291.026  2.270666E-02
   291.369  2.266399E-02
   291.713  2.262140E-02
   292.057  2.257890E-02
   292.401  2.253645E-02
   292.745  2.249409E-02
   293.090  2.245180E-02
   293.436  2.240959E-02
   293.782  2.236744E-02
   294.128  2.232538E-02
   294.475  2.228337E-02
   294.822  2.224145E-02
   295.169  2.219960E-02
   295.517  2.215758E-02
   295.865  2.211545E-02
   296.214  2.207318E-02
   296.563  2.203088E-02
   296.913  2.198866E-02
   297.263  2.194650E-02
   297.613  2.190444E-02
   297.964  2.186244E-02
   298.315  2.182051E-02
   298.667  2.177867E-02
   299.019  2.173689E-02
   299.371  2.169519E-02
   299.724  2.165357E-02
   300.077  2.161202E-02
   300.431  2.157011E-02
   300.785  2.152822E-02
   301.140  2.148571E-02
   301.494  2.144326E-02
   301.850  2.140090E-02
   302.206  2.135862E-02
   302.562  2.131641E-02
   302.918  2.127429E-02
   303.275  2.123224E-02
   303.633  2.119026E-02
   303.991  2.114836E-02
   304.349  2.110655E-02
   304.708  2.106481E-02
   305.067  2.102301E-02
   305.426  2.098101E-02
   305.786  2.093870E-02
   306.147  2.089596E-02
   306.508  2.085331E-02
   306.869  2.081074E-02
   307.231  2.076825E-02
   307.593  2.072584E-02
   307.955  2.068351E-02
   308.318  2.064126E-02
   308.682  2.059910E-02
   309.045  2.055700E-02
   309.410  2.051500E-02
   309.774  2.047308E-02
   310.139  2.043085E-02
   310.505  2.038855E-02
   310.871  2.034594E-02
   311.237  2.030331E-02
   311.604  2.026076E-02
   311.971  2.021830E-02
   312.339  2.017592E-02
   312.707  2.013362E-02
   313.076  2.009141E-02
   313.445  2.004928E-02
   313.814  2.000723E-02
   314.184  1.996526E-02
   314.554  1.992338E-02
   314.925  1.988149E-02
   315.296  1.983888E-02
   315.668  1.979627E-02
   316.040  1.975341E-02
   316.413  1.971064E-02
   316.785  1.966795E-02
   317.159  1.962535E-02
   317.533  1.958283E-02
   317.907  1.954040E-02
   318.282  1.949805E-02
   318.657  1.945579E-02
   319.032  1.941362E-02
   319.408  1.937154E-02
   319.785  1.932953E-02
   320.162  1.928717E-02
   320.539  1.924439E-02
   320.917  1.920151E-02
   321.295  1.915859E-02
   321.674  1.911576E-02
   322.053  1.907302E-02
   322.432  1.903036E-02
   322.812  1.898779E-02
   323.193  1.894532E-02
   323.574  1.890293E-02
   323.955  1.886063E-02
   324.337  1.881842E-02
   324.719  1.877630E-02
   325.102  1.873426E-02
   325.485  1.869152E-02
   325.869  1.864875E-02
   326.253  1.860578E-02
   326.637  1.856290E-02
   327.022  1.852011E-02
   327.408  1.847742E-02
   327.794  1.843481E-02
   328.180  1.839229E-02
   328.567  1.834986E-02
   328.954  1.830753E-02
   329.342  1.826529E-02
   329.730  1.822313E-02
   330.119  1.818107E-02
   330.508  1.813887E-02
   330.897  1.809596E-02
   331.287  1.805306E-02
   331.678  1.801010E-02
   332.069  1.796724E-02
   332.460  1.792447E-02
   332.852  1.788179E-02
   333.244  1.783921E-02
   333.637  1.779672E-02
   334.030  1.775432E-02
   334.424  1.771202E-02
   334.818  1.766982E-02
   335.213  1.762770E-02
   335.608  1.758569E-02
   336.003  1.754304E-02
   336.399  1.750004E-02
   336.796  1.745703E-02
   337.193  1.741407E-02
   337.590  1.737120E-02
   337.988  1.732843E-02
   338.387  1.728575E-02
   338.785  1.724318E-02
   339.185  1.720070E-02
   339.584  1.715832E-02
   339.985  1.711605E-02
   340.385  1.707386E-02
   340.787  1.703177E-02
   341.188  1.698977E-02
   341.590  1.694655E-02
   341.993  1.690339E-02
   342.396  1.686023E-02
   342.800  1.681717E-02
   343.204  1.677422E-02
   343.608  1.673137E-02
   344.013  1.668861E-02
   344.419  1.664596E-02
   344.824  1.660340E-02
   345.231  1.656095E-02
   345.638  1.651860E-02
   346.045  1.647635E-02
   346.453  1.643420E-02
   346.861  1.639156E-02
   347.270  1.634803E-02
   347.680  1.630460E-02
   348.089  1.626126E-02
   348.500  1.621802E-02
   348.910  1.617489E-02
   349.322  1.613187E-02
   349.733  1.608895E-02
   350.145  1.604613E-02
   350.558  1.600342E-02
   350.971  1.596082E-02
   351.385  1.591832E-02
   351.799  1.587592E-02
   352.214  1.583362E-02
   352.629  1.579002E-02
   353.045  1.574603E-02
   353.461  1.570227E-02
   353.877  1.565865E-02
   354.294  1.561513E-02
   354.712  1.557173E-02
   355.130  1.552843E-02
   355.549  1.548525E-02
   355.968  1.544217E-02
   356.387  1.539921E-02
   356.807  1.535635E-02
   357.228  1.531361E-02
   357.649  1.527097E-02
   358.070  1.522814E-02
   358.492  1.518339E-02
   358.915  1.513890E-02
   359.338  1.509503E-02
   359.761  1.505127E-02
   360.185  1.500763E-02
   360.610  1.496411E-02
   361.035  1.492070E-02
   361.461  1.487740E-02
   361.887  1.483422E-02
   362.313  1.479115E-02
   362.740  1.474819E-02
   363.168  1.470535E-02
   363.596  1.466262E-02
   364.024  1.461852E-02
   364.453  1.457307E-02
   364.883  1.452776E-02
   365.313  1.448259E-02
   365.743  1.443753E-02
   366.174  1.439260E-02
   366.606  1.434780E-02
   367.038  1.430311E-02
   367.471  1.425856E-02
   367.904  1.421413E-02
   368.337  1.416983E-02
   368.772  1.412565E-02
   369.206  1.408160E-02
   369.641  1.403767E-02
   370.077  1.399044E-02
   370.513  1.394292E-02
   370.950  1.389427E-02
   371.387  1.384574E-02
   371.825  1.379736E-02
   372.263  1.374913E-02
   372.702  1.370105E-02
   373.141  1.365312E-02
   373.581  1.360532E-02
   374.021  1.355768E-02
   374.462  1.351018E-02
   374.903  1.346283E-02
   375.345  1.341563E-02
   375.788  1.336717E-02
   376.231  1.331491E-02
   376.674  1.326248E-02
   377.118  1.320960E-02
   377.562  1.315689E-02
   378.008  1.310435E-02
   378.453  1.305200E-02
   378.899  1.299982E-02
   379.346  1.294782E-02
   379.793  1.289600E-02
   380.240  1.284435E-02
   380.689  1.279287E-02
   381.137  1.274157E-02
   381.586  1.269045E-02
   382.036  1.263442E-02
   382.487  1.257578E-02
   382.937  1.251704E-02
   383.389  1.245840E-02
   383.841  1.239997E-02
   384.293  1.234177E-02
   384.746  1.228380E-02
   385.199  1.222603E-02
   385.653  1.216850E-02
   386.108  1.211119E-02
   386.563  1.205408E-02
   387.019  1.199720E-02
   387.475  1.194054E-02
   387.931  1.188384E-02
   388.389  1.181459E-02
   388.846  1.174562E-02
   389.305  1.167665E-02
   389.764  1.160797E-02
   390.223  1.153962E-02
   390.683  1.147158E-02
   391.143  1.140383E-02
   391.604  1.133640E-02
   392.066  1.126928E-02
   392.528  1.120246E-02
   392.991  1.113593E-02
   393.454  1.106971E-02
   393.918  1.100380E-02
   394.382  1.092773E-02
   394.847  1.083633E-02
   395.312  1.074532E-02
   395.778  1.065468E-02
   396.244  1.056461E-02
   396.711  1.047507E-02
   397.179  1.038607E-02
   397.647  1.029757E-02
   398.116  1.020963E-02
   398.585  1.012222E-02
   399.055  1.003530E-02
   399.525  9.948942E-03
   399.996  9.863104E-03
   400.467  9.777757E-03
   400.939  9.623612E-03
   401.412  9.451265E-03
   401.885  9.280637E-03
   402.359  9.111830E-03
   402.833  8.944998E-03
   403.308  8.780058E-03
   403.783  8.616954E-03
   404.259  8.455792E-03
   404.736  8.296506E-03
   405.213  8.139082E-03
   405.690  7.983466E-03
   406.168  7.829757E-03
   406.647  7.677887E-03
   407.126  7.403626E-03
   407.606  6.492310E-03
   408.087  5.648009E-03
   408.568  4.870564E-03
   409.049  4.159695E-03
   409.531  3.515811E-03
   410.014  5.256155E-03
   410.497  5.691759E-03
   410.981  6.167052E-03
   411.465  6.681861E-03
   411.950  7.236073E-03
   412.436  7.828865E-03
   412.922  8.460093E-03
   413.409  9.129384E-03
   413.896  9.503849E-03
   414.384  9.598756E-03
   414.872  9.694295E-03
   415.361  9.790541E-03
   415.851  9.887449E-03
   416.341  9.985065E-03
   416.832  1.008343E-02
   417.323  1.018243E-02
   417.815  1.028212E-02
   418.307  1.038249E-02
   418.800  1.048359E-02
   419.294  1.058530E-02
   419.788  1.068768E-02
   420.283  1.079077E-02
   420.778  1.083519E-02
   421.274  1.087410E-02
   421.771  1.091300E-02
   422.268  1.095198E-02
   422.765  1.099106E-02
   423.264  1.103025E-02
   423.763  1.106956E-02
   424.262  1.110894E-02
   424.762  1.114843E-02
   425.263  1.118803E-02
   425.764  1.122770E-02
   426.266  1.126747E-02
   426.768  1.130733E-02
   427.271  1.134104E-02
   427.775  1.135959E-02
   428.279  1.137812E-02
   428.784  1.139663E-02
   429.289  1.141514E-02
   429.795  1.143369E-02
   430.302  1.145228E-02
   430.809  1.147088E-02
   431.316  1.148950E-02
   431.825  1.150814E-02
   432.334  1.152683E-02
   432.843  1.154553E-02
   433.354  1.156425E-02
   433.864  1.158301E-02
   434.376  1.159437E-02
   434.888  1.160213E-02
   435.400  1.160981E-02
   435.913  1.161749E-02
   436.427  1.162516E-02
   436.942  1.163285E-02
   437.457  1.164057E-02
   437.972  1.164828E-02
   438.488  1.165600E-02
   439.005  1.166374E-02
   439.523  1.167149E-02
   440.041  1.167923E-02
   440.559  1.168701E-02
   441.078  1.169443E-02
   441.598  1.169545E-02
   442.119  1.169646E-02
   442.640  1.169743E-02
   443.162  1.169840E-02
   443.684  1.169939E-02
   444.207  1.170039E-02
   444.730  1.170139E-02
   445.255  1.170239E-02
   445.779  1.170342E-02
   446.305  1.170445E-02
   446.831  1.170548E-02
   447.357  1.170652E-02
   447.885  1.170757E-02
   448.413  1.170666E-02
   448.941  1.170313E-02
   449.470  1.169962E-02
   450.000  1.169608E-02
   450.332  1.169387E-02
   450.664  1.169168E-02
   450.996  1.168948E-02
   451.328  1.168729E-02
   451.661  1.168510E-02
   451.994  1.168292E-02
   452.327  1.168073E-02
   452.661  1.167855E-02
   452.994  1.167639E-02
   453.328  1.167422E-02
   453.663  1.167205E-02
   453.997  1.166989E-02
   454.332  1.166773E-02
   454.667  1.166558E-02
   455.002  1.166342E-02
   455.337  1.166128E-02
   455.673  1.165766E-02
   456.009  1.165345E-02
   456.345  1.164924E-02
   456.681  1.164505E-02
   457.018  1.164086E-02
   457.355  1.163668E-02
   457.692  1.163250E-02
   458.030  1.162832E-02
   458.367  1.162416E-02
   458.705  1.162000E-02
   459.043  1.161585E-02
   459.382  1.161169E-02
   459.720  1.160755E-02
   460.059  1.160340E-02
   460.398  1.159927E-02
   460.738  1.159514E-02
   461.077  1.159101E-02
   461.417  1.158690E-02
   461.758  1.158277E-02
   462.098  1.157866E-02
   462.439  1.157455E-02
   462.779  1.157045E-02
   463.121  1.156489E-02
   463.462  1.155923E-02
   463.804  1.155358E-02
   464.146  1.154780E-02
   464.488  1.154201E-02
   464.830  1.153622E-02
   465.173  1.153044E-02
   465.516  1.152466E-02
   465.859  1.151889E-02
   466.202  1.151314E-02
   466.546  1.150738E-02
   466.890  1.150164E-02
   467.234  1.149590E-02
   467.579  1.149017E-02
   467.923  1.148443E-02
   468.268  1.147872E-02
   468.614  1.147300E-02
   468.959  1.146729E-02
   469.305  1.146159E-02
   469.651  1.145589E-02
   469.997  1.145021E-02
   470.343  1.144432E-02
   470.690  1.143742E-02
   471.037  1.143053E-02
   471.384  1.142362E-02
   471.732  1.141656E-02
   472.080  1.140951E-02
   472.428  1.140247E-02
   472.776  1.139543E-02
   473.124  1.138841E-02
   473.473  1.138138E-02
   473.822  1.137437E-02
   474.172  1.136737E-02
   474.521  1.136037E-02
   474.871  1.135338E-02
   475.221  1.134639E-02
   475.571  1.133943E-02
   475.922  1.133245E-02
   476.273  1.132550E-02
   476.624  1.131855E-02
   476.975  1.131160E-02
   477.327  1.130466E-02
   477.679  1.129774E-02
   478.031  1.129043E-02
   478.383  1.128254E-02
   478.736  1.127465E-02
   479.089  1.126673E-02
   479.442  1.125874E-02
   479.795  1.125076E-02
   480.149  1.124280E-02
   480.503  1.123483E-02
   480.857  1.122687E-02
   481.212  1.121893E-02
   481.567  1.121099E-02
   481.922  1.120306E-02
   482.277  1.119514E-02
   482.632  1.118723E-02
   482.988  1.117933E-02
   483.344  1.117143E-02
   483.701  1.116355E-02
   484.057  1.115567E-02
   484.414  1.114780E-02
   484.771  1.113994E-02
   485.128  1.113209E-02
   485.486  1.112424E-02
   485.844  1.111591E-02
   486.202  1.110728E-02
   486.561  1.109867E-02
   486.919  1.109001E-02
   487.278  1.108134E-02
   487.637  1.107267E-02
   487.997  1.106402E-02
   488.357  1.105537E-02
   488.717  1.104673E-02
   489.077  1.103810E-02
   489.438  1.102948E-02
   489.798  1.102087E-02
   490.159  1.101227E-02
   490.521  1.100368E-02
   490.882  1.099510E-02
   491.244  1.098652E-02
   491.606  1.097796E-02
   491.969  1.096941E-02
   492.331  1.096086E-02
   492.694  1.095233E-02
   493.058  1.094380E-02
   493.421  1.093529E-02
   493.785  1.092622E-02
   494.149  1.091706E-02
   494.513  1.090791E-02
   494.878  1.089872E-02
   495.243  1.088952E-02
   495.608  1.088033E-02
   495.973  1.087115E-02
   496.339  1.086198E-02
   496.705  1.085283E-02
   497.071  1.084368E-02
   497.437  1.083454E-02
   497.804  1.082541E-02
   498.171  1.081629E-02
   498.538  1.080718E-02
   498.906  1.079808E-02
   499.273  1.078899E-02
   499.641  1.077992E-02
   500.010  1.077085E-02
   500.378  1.076179E-02
   500.747  1.075274E-02
   501.116  1.074370E-02
   501.486  1.073463E-02
   501.855  1.072506E-02
   502.225  1.071549E-02
   502.596  1.070594E-02
   502.966  1.069633E-02
   503.337  1.068674E-02
   503.708  1.067716E-02
   504.079  1.066759E-02
   504.451  1.065803E-02
   504.823  1.064848E-02
   505.195  1.063893E-02
   505.567  1.062941E-02
   505.940  1.061989E-02
   506.313  1.061038E-02
   506.686  1.060089E-02
   507.060  1.059140E-02
   507.434  1.058192E-02
   507.808  1.057245E-02
   508.182  1.056300E-02
   508.557  1.055355E-02
   508.932  1.054412E-02
   509.307  1.053470E-02
   509.682  1.052514E-02
   510.058  1.051527E-02
   510.434  1.050541E-02
   510.810  1.049555E-02
   511.187  1.048567E-02
   511.564  1.047579E-02
   511.941  1.046593E-02
   512.318  1.045608E-02
   512.696  1.044624E-02
   513.074  1.043641E-02
   513.452  1.042660E-02
   513.831  1.041679E-02
   514.209  1.040700E-02
   514.589  1.039721E-02
   514.968  1.038744E-02
   515.348  1.037767E-02
   515.727  1.036792E-02
   516.108  1.035819E-02
   516.488  1.034845E-02
   516.869  1.033874E-02
   517.250  1.032902E-02
   517.631  1.031933E-02
   518.013  1.030943E-02
   518.395  1.029936E-02
   518.777  1.028930E-02
   519.159  1.027923E-02
   519.542  1.026915E-02
   519.925  1.025908E-02
   520.308  1.024902E-02
   520.692  1.023897E-02
   521.076  1.022893E-02
   521.460  1.021891E-02
   521.844  1.020889E-02
   522.229  1.019889E-02
   522.614  1.018890E-02
   522.999  1.017893E-02
   523.385  1.016895E-02
   523.771  1.015900E-02
   524.157  1.014905E-02
   524.543  1.013912E-02
   524.930  1.012919E-02
   525.317  1.011928E-02
   525.704  1.010938E-02
   526.092  1.009949E-02
   526.479  1.008936E-02
   526.868  1.007916E-02
   527.256  1.006897E-02
   527.645  1.005876E-02
   528.034  1.004856E-02
   528.423  1.003837E-02
   528.812  1.002818E-02
   529.202  1.001802E-02
   529.592  1.000786E-02
   529.983  9.997712E-03
   530.374  9.987576E-03
   530.765  9.977456E-03
   531.156  9.967349E-03
   531.547  9.957245E-03
   531.939  9.947158E-03
   532.331  9.937083E-03
   532.724  9.927021E-03
   533.117  9.916966E-03
   533.510  9.906925E-03
   533.903  9.896895E-03
   534.296  9.886875E-03
   534.690  9.876869E-03
   535.084  9.866601E-03
   535.479  9.856340E-03
   535.874  9.846092E-03
   536.269  9.835822E-03
   536.664  9.825564E-03
   537.060  9.815316E-03
   537.456  9.805082E-03
   537.852  9.794859E-03
   538.248  9.784650E-03
   538.645  9.774446E-03
   539.042  9.764262E-03
   539.440  9.754083E-03
   539.837  9.743919E-03
   540.235  9.733770E-03
   540.633  9.723631E-03
   541.032  9.713497E-03
   541.431  9.703380E-03
   541.830  9.693278E-03
   542.229  9.683182E-03
   542.629  9.673102E-03
   543.029  9.663030E-03
   543.430  9.652928E-03
   543.830  9.642658E-03
   544.231  9.632408E-03
   544.632  9.622161E-03
   545.034  9.611901E-03
   545.436  9.601660E-03
   545.838  9.591428E-03
   546.240  9.581207E-03
   546.643  9.570999E-03
   547.046  9.560804E-03
   547.449  9.550620E-03
   547.853  9.540448E-03
   548.256  9.530287E-03
   548.661  9.520138E-03
   549.065  9.510003E-03
   549.470  9.499877E-03
   549.875  9.489766E-03
   550.280  9.479664E-03
   550.686  9.469573E-03
   551.092  9.459498E-03
   551.498  9.449431E-03
   551.905  9.439378E-03
   552.312  9.429283E-03
   552.719  9.419134E-03
   553.126  9.408992E-03
   553.534  9.398861E-03
   553.942  9.388721E-03
   554.350  9.378603E-03
   554.759  9.368491E-03
   555.168  9.358393E-03
   555.577  9.348306E-03
   555.987  9.338234E-03
   556.397  9.328169E-03
   556.807  9.318119E-03
   557.217  9.308078E-03
   557.628  9.298050E-03
   558.039  9.288037E-03
   558.451  9.278034E-03
   558.862  9.268035E-03
   559.274  9.258059E-03
   559.687  9.248087E-03
   560.099  9.238132E-03
   560.512  9.228188E-03
   560.925  9.218250E-03
   561.339  9.208241E-03
   561.753  9.198201E-03
   562.167  9.188173E-03
   562.581  9.178150E-03
   562.996  9.168140E-03
   563.411  9.158136E-03
   563.826  9.148150E-03
   564.242  9.138176E-03
   564.658  9.128209E-03
   565.074  9.118256E-03
   565.491  9.108314E-03
   565.908  9.098385E-03
   566.325  9.088466E-03
   566.742  9.078564E-03
   567.160  9.068670E-03
   567.578  9.058789E-03
   567.997  9.048920E-03
   568.415  9.039060E-03
   568.834  9.029212E-03
   569.254  9.019380E-03
   569.673  9.009557E-03
   570.093  8.999745E-03
   570.514  8.989603E-03
   570.934  8.979423E-03
   571.355  8.969263E-03
   571.776  8.959141E-03
   572.198  8.949036E-03
   572.620  8.938944E-03
   573.042  8.928867E-03
   573.464  8.918803E-03
   573.887  8.908748E-03
   574.310  8.898707E-03
   574.733  8.888680E-03
   575.157  8.878661E-03
   575.581  8.868657E-03
   576.005  8.858666E-03
   576.430  8.848684E-03
   576.855  8.838720E-03
   577.280  8.828762E-03
   577.706  8.818818E-03
   578.132  8.808888E-03
   578.558  8.798974E-03
   578.984  8.789063E-03
   579.411  8.779129E-03
   579.838  8.768907E-03
   580.266  8.758698E-03
   580.693  8.748499E-03
   581.122  8.738301E-03
   581.550  8.728110E-03
   581.979  8.717933E-03
   582.408  8.707769E-03
   582.837  8.697615E-03
   583.267  8.687480E-03
   583.697  8.677353E-03
   584.127  8.667244E-03
   584.558  8.657141E-03
   584.989  8.647054E-03
   585.420  8.636979E-03
   585.851  8.626916E-03
   586.283  8.616870E-03
   586.716  8.606832E-03
   587.148  8.596810E-03
   587.581  8.586798E-03
   588.014  8.576798E-03
   588.448  8.566813E-03
   588.881  8.556770E-03
   589.315  8.546594E-03
   589.750  8.536432E-03
   590.185  8.526260E-03
   590.620  8.516031E-03
   591.055  8.505818E-03
   591.491  8.495614E-03
   591.927  8.485426E-03
   592.363  8.475253E-03
   592.800  8.465091E-03
   593.237  8.454942E-03
   593.674  8.444807E-03
   594.112  8.434682E-03
   594.550  8.424575E-03
   594.988  8.414478E-03
   595.427  8.404393E-03
   595.866  8.394323E-03
   596.305  8.384266E-03
   596.745  8.374221E-03
   597.185  8.364189E-03
   597.625  8.354174E-03
   598.065  8.344167E-03
   598.506  8.334068E-03
   598.947  8.323902E-03
   599.389  8.313752E-03
   599.831  8.303567E-03
   600.273  8.293353E-03
   600.716  8.283153E-03
   601.158  8.272967E-03
   601.602  8.262796E-03
   602.045  8.252634E-03
   602.489  8.242487E-03
   602.933  8.232357E-03
   603.378  8.222233E-03
   603.822  8.212128E-03
   604.267  8.202033E-03
   604.713  8.191954E-03
   605.159  8.181886E-03
   605.605  8.171832E-03
   606.051  8.161789E-03
   606.498  8.151760E-03
   606.945  8.141750E-03
   607.393  8.131745E-03
   607.840  8.121761E-03
   608.289  8.111655E-03
   608.737  8.101535E-03
   609.186  8.091425E-03
   609.635  8.081290E-03
   610.084  8.071155E-03
   610.534  8.061030E-03
   610.984  8.050923E-03
   611.434  8.040824E-03
   611.885  8.030744E-03
   612.336  8.020673E-03
   612.788  8.010619E-03
   613.239  8.000573E-03
   613.691  7.990545E-03
   614.144  7.980527E-03
   614.597  7.970524E-03
   615.050  7.960537E-03
   615.503  7.950561E-03
   615.957  7.940594E-03
   616.411  7.930646E-03
   616.865  7.920709E-03
   617.320  7.910783E-03
   617.775  7.900867E-03
   618.231  7.890830E-03
   618.686  7.880807E-03
   619.142  7.870801E-03
   619.599  7.860764E-03
   620.056  7.850741E-03
   620.513  7.840731E-03
   620.970  7.830736E-03
   621.428  7.820755E-03
   621.886  7.810783E-03
   622.345  7.800831E-03
   622.803  7.790887E-03
   623.262  7.780958E-03
   623.722  7.771043E-03
   624.182  7.761138E-03
   624.642  7.751248E-03
   625.102  7.741371E-03
   625.563  7.731508E-03
   626.024  7.721662E-03
   626.486  7.711824E-03
   626.948  7.702001E-03
   627.410  7.692186E-03
   627.872  7.682359E-03
   628.335  7.672452E-03
   628.798  7.662558E-03
   629.262  7.652672E-03
   629.726  7.642766E-03
   630.190  7.632875E-03
   630.655  7.622994E-03
   631.120  7.613131E-03
   631.585  7.603278E-03
   632.050  7.593442E-03
   632.516  7.583615E-03
   632.983  7.573803E-03
   633.449  7.564005E-03
   633.916  7.554220E-03
   634.384  7.544446E-03
   634.851  7.534690E-03
   635.319  7.524941E-03
   635.788  7.515209E-03
   636.256  7.505489E-03
   636.725  7.495782E-03
   637.195  7.486089E-03
   637.665  7.476408E-03
   638.135  7.466687E-03
   638.605  7.456924E-03
   639.076  7.447171E-03
   639.547  7.437425E-03
   640.018  7.427671E-03
   640.490  7.417932E-03
   640.962  7.408205E-03
   641.435  7.398492E-03
   641.908  7.388796E-03
   642.381  7.379107E-03
   642.855  7.369435E-03
   643.328  7.359773E-03
   643.803  7.350127E-03
   644.277  7.340494E-03
   644.752  7.330873E-03
   645.228  7.321264E-03
   645.703  7.311669E-03
   646.179  7.302088E-03
   646.656  7.292520E-03
   647.132  7.282962E-03
   647.609  7.273418E-03
   648.087  7.263889E-03
   648.565  7.254303E-03
   649.043  7.244703E-03
   649.521  7.235114E-03
   650.000  7.225523E-03
   650.350  7.218524E-03
   650.699  7.211536E-03
   651.049  7.204552E-03
   651.399  7.197578E-03
   651.750  7.190608E-03
   652.100  7.183646E-03
   652.451  7.176693E-03
   652.802  7.169741E-03
   653.153  7.162801E-03
   653.504  7.155864E-03
   653.855  7.148942E-03
   654.207  7.142021E-03
   654.559  7.135107E-03
   654.911  7.128198E-03
   655.263  7.121300E-03
   655.615  7.114408E-03
   655.968  7.107520E-03
   656.320  7.100642E-03
   656.673  7.093768E-03
   657.027  7.086904E-03
   657.380  7.080043E-03
   657.733  7.073194E-03
   658.087  7.066348E-03
   658.441  7.059510E-03
   658.795  7.052662E-03
   659.149  7.045776E-03
   659.504  7.038897E-03
   659.858  7.032022E-03
   660.213  7.025153E-03
   660.568  7.018273E-03
   660.923  7.011399E-03
   661.279  7.004529E-03
   661.634  6.997671E-03
   661.990  6.990814E-03
   662.346  6.983971E-03
   662.702  6.977126E-03
   663.059  6.970294E-03
   663.415  6.963469E-03
   663.772  6.956651E-03
   664.129  6.949838E-03
   664.486  6.943032E-03
   664.844  6.936232E-03
   665.201  6.929441E-03
   665.559  6.922656E-03
   665.917  6.915878E-03
   666.275  6.909105E-03
   666.633  6.902340E-03
   666.992  6.895580E-03
   667.350  6.888831E-03
   667.709  6.882086E-03
   668.068  6.875349E-03
   668.427  6.868618E-03
   668.787  6.861890E-03
   669.146  6.855177E-03
   669.506  6.848440E-03
   669.866  6.841683E-03
   670.227  6.834929E-03
   670.587  6.828182E-03
   670.948  6.821438E-03
   671.308  6.814690E-03
   671.669  6.807948E-03
   672.031  6.801213E-03
   672.392  6.794486E-03
   672.753  6.787763E-03
   673.115  6.781049E-03
   673.477  6.774341E-03
   673.839  6.767642E-03
   674.202  6.760946E-03
   674.564  6.754259E-03
   674.927  6.747579E-03
   675.290  6.740906E-03
   675.653  6.734238E-03
   676.016  6.727579E-03
   676.380  6.720924E-03
   676.744  6.714276E-03
   677.108  6.707636E-03
   677.472  6.701003E-03
   677.836  6.694378E-03
   678.201  6.687754E-03
   678.565  6.681143E-03
   678.930  6.674536E-03
   679.295  6.667936E-03
   679.661  6.661343E-03
   680.026  6.654755E-03
   680.392  6.648148E-03
   680.758  6.641524E-03
   681.124  6.634906E-03
   681.490  6.628298E-03
   681.856  6.621671E-03
   682.223  6.615017E-03
   682.590  6.608367E-03
   682.957  6.601722E-03
   683.324  6.595087E-03
   683.692  6.588458E-03
   684.059  6.581835E-03
   684.427  6.575222E-03
   684.795  6.568613E-03
   685.164  6.562010E-03
   685.532  6.555415E-03
   685.901  6.548826E-03
   686.269  6.542245E-03
   686.638  6.535667E-03
   687.008  6.529102E-03
   687.377  6.522539E-03
   687.747  6.515984E-03
   688.117  6.509436E-03
   688.487  6.502895E-03
   688.857  6.496359E-03
   689.227  6.489832E-03
   689.598  6.483310E-03
   689.969  6.476795E-03
   690.340  6.470287E-03
   690.711  6.463786E-03
   691.082  6.457289E-03
   691.454  6.450771E-03
   691.826  6.444246E-03
   692.198  6.437725E-03
   692.570  6.431212E-03
   692.943  6.424698E-03
   693.315  6.418189E-03
   693.688  6.411683E-03
   694.061  6.405185E-03
   694.434  6.398695E-03
   694.808  6.392209E-03
   695.181  6.385733E-03
   695.555  6.379262E-03
   695.929  6.372797E-03
   696.303  6.366337E-03
   696.678  6.359888E-03
   697.053  6.353443E-03
   697.427  6.347005E-03
   697.802  6.340573E-03
   698.178  6.334146E-03
   698.553  6.327730E-03
   698.929  6.321318E-03
   699.305  6.314912E-03
   699.681  6.308513E-03
   700.057  6.302122E-03
   700.433  6.295737E-03
   700.810  6.289358E-03
   701.187  6.282984E-03
   701.564  6.276618E-03
   701.941  6.270259E-03
   702.319  6.263905E-03
   702.696  6.257526E-03
   703.074  6.251144E-03
   703.452  6.244773E-03
   703.831  6.238405E-03
   704.209  6.232073E-03
   704.588  6.225761E-03
   704.967  6.219454E-03
   705.346  6.213155E-03
   705.725  6.206861E-03
   706.104  6.200573E-03
   706.484  6.194292E-03
   706.864  6.188017E-03
   707.244  6.181749E-03
   707.625  6.175488E-03
   708.005  6.169232E-03
   708.386  6.162983E-03
   708.767  6.156742E-03
   709.148  6.150503E-03
   709.529  6.144275E-03
   709.911  6.138051E-03
   710.293  6.131836E-03
   710.674  6.125623E-03
   711.057  6.119420E-03
   711.439  6.113221E-03
   711.822  6.107030E-03
   712.204  6.100846E-03
   712.587  6.094667E-03
   712.971  6.088494E-03
   713.354  6.082328E-03
   713.738  6.076165E-03
   714.121  6.069979E-03
   714.505  6.063796E-03
   714.890  6.057620E-03
   715.274  6.051449E-03
   715.659  6.045302E-03
   716.044  6.039163E-03
   716.429  6.033032E-03
   716.814  6.026906E-03
   717.199  6.020787E-03
   717.585  6.014672E-03
   717.971  6.008566E-03
   718.357  6.002465E-03
   718.743  5.996370E-03
   719.130  5.990283E-03
   719.516  5.984202E-03
   719.903  5.978125E-03
   720.290  5.972054E-03
   720.678  5.965991E-03
   721.065  5.959934E-03
   721.453  5.953882E-03
   721.841  5.947838E-03
   722.229  5.941798E-03
   722.618  5.935766E-03
   723.006  5.929742E-03
   723.395  5.923719E-03
   723.784  5.917707E-03
   724.173  5.911699E-03
   724.563  5.905696E-03
   724.952  5.899698E-03
   725.342  5.893705E-03
   725.732  5.887690E-03
   726.122  5.881683E-03
   726.513  5.875682E-03
   726.904  5.869685E-03
   727.294  5.863701E-03
   727.686  5.857724E-03
   728.077  5.851750E-03
   728.468  5.845786E-03
   728.860  5.839826E-03
   729.252  5.833869E-03
   729.644  5.827924E-03
   730.037  5.821982E-03
   730.429  5.816046E-03
   730.822  5.810118E-03
   731.215  5.804193E-03
   731.608  5.798278E-03
   732.002  5.792365E-03
   732.395  5.786461E-03
   732.789  5.780561E-03
   733.183  5.774668E-03
   733.577  5.768781E-03
   733.972  5.762898E-03
   734.367  5.757025E-03
   734.761  5.751155E-03
   735.157  5.745295E-03
   735.552  5.739437E-03
   735.947  5.733586E-03
   736.343  5.727740E-03
   736.739  5.721903E-03
   737.135  5.716061E-03
   737.532  5.710207E-03
   737.928  5.704360E-03
   738.325  5.698519E-03
   738.722  5.692687E-03
   739.119  5.686863E-03
   739.517  5.681046E-03
   739.915  5.675235E-03
   740.312  5.669432E-03
   740.711  5.663634E-03
   741.109  5.657840E-03
   741.507  5.652054E-03
   741.906  5.646272E-03
   742.305  5.640497E-03
   742.704  5.634727E-03
   743.104  5.628965E-03
   743.503  5.623208E-03
   743.903  5.617457E-03
   744.303  5.611712E-03
   744.703  5.605973E-03
   745.104  5.600240E-03
   745.505  5.594511E-03
   745.905  5.588790E-03
   746.307  5.583073E-03
   746.708  5.577364E-03
   747.109  5.571660E-03
   747.511  5.565962E-03
   747.913  5.560269E-03
   748.315  5.554582E-03
   748.718  5.548902E-03
   749.120  5.543220E-03
   749.523  5.537539E-03
   749.926  5.531866E-03
   750.329  5.526195E-03
   750.733  5.520533E-03
   751.137  5.514882E-03
   751.541  5.509235E-03
   751.945  5.503595E-03
   752.349  5.497962E-03
   752.754  5.492332E-03
   753.158  5.486711E-03
   753.563  5.481092E-03
   753.969  5.475482E-03
   754.374  5.469875E-03
   754.780  5.464277E-03
   755.186  5.458684E-03
   755.592  5.453094E-03
   755.998  5.447512E-03
   756.405  5.441936E-03
   756.811  5.436364E-03
   757.218  5.430799E-03
   757.626  5.425240E-03
   758.033  5.419685E-03
   758.441  5.414137E-03
   758.848  5.408595E-03
   759.257  5.403059E-03
   759.665  5.397529E-03
   760.073  5.392003E-03
   760.482  5.386484E-03
   760.891  5.380968E-03
   761.300  5.375451E-03
   761.710  5.369938E-03
   762.119  5.364425E-03
   762.529  5.358921E-03
   762.939  5.353426E-03
   763.349  5.347939E-03
   763.760  5.342457E-03
   764.170  5.336981E-03
   764.581  5.331513E-03
   764.993  5.326047E-03
   765.404  5.320589E-03
   765.816  5.315134E-03
   766.227  5.309686E-03
   766.639  5.304244E-03
   767.052  5.298809E-03
   767.464  5.293378E-03
   767.877  5.287954E-03
   768.290  5.282533E-03
   768.703  5.277119E-03
   769.116  5.271710E-03
   769.530  5.266307E-03
   769.944  5.260910E-03
   770.358  5.255517E-03
   770.772  5.250130E-03
   771.186  5.244750E-03
   771.601  5.239376E-03
   772.016  5.234004E-03
   772.431  5.228641E-03
   772.847  5.223282E-03
   773.262  5.217929E-03
   773.678  5.212554E-03
   774.094  5.207181E-03
   774.510  5.201813E-03
   774.927  5.196450E-03
   775.344  5.191098E-03
   775.760  5.185755E-03
   776.178  5.180420E-03
   776.595  5.175088E-03
   777.013  5.169763E-03
   777.430  5.164444E-03
   777.849  5.159129E-03
   778.267  5.153821E-03
   778.685  5.148517E-03
   779.104  5.143219E-03
   779.523  5.137928E-03
   779.942  5.132640E-03
   780.362  5.127359E-03
   780.781  5.122081E-03
   781.201  5.116812E-03
   781.621  5.111548E-03
   782.042  5.106288E-03
   782.462  5.101032E-03
   782.883  5.095785E-03
   783.304  5.090542E-03
   783.725  5.085302E-03
   784.146  5.080071E-03
   784.568  5.074842E-03
   784.990  5.069621E-03
   785.412  5.064406E-03
   785.835  5.059194E-03
   786.257  5.053950E-03
   786.680  5.048706E-03
   787.103  5.043469E-03
   787.526  5.038239E-03
   787.950  5.033034E-03
   788.373  5.027845E-03
   788.797  5.022659E-03
   789.222  5.017480E-03
   789.646  5.012305E-03
   790.071  5.007137E-03
   790.495  5.001971E-03
   790.921  4.996814E-03
   791.346  4.991661E-03
   791.771  4.986514E-03
   792.197  4.981371E-03
   792.623  4.976236E-03
   793.049  4.971104E-03
   793.476  4.965977E-03
   793.903  4.960856E-03
   794.329  4.955743E-03
   794.757  4.950630E-03
   795.184  4.945526E-03
   795.612  4.940424E-03
   796.039  4.935333E-03
   796.468  4.930241E-03
   796.896  4.925159E-03
   797.324  4.920080E-03
   797.753  4.915007E-03
   798.182  4.909939E-03
   798.611  4.904871E-03
   799.041  4.899777E-03
   799.470  4.894688E-03
   799.900  4.889602E-03
   800.331  4.884525E-03
   800.761  4.879422E-03
   801.192  4.874322E-03
   801.622  4.869228E-03
   802.053  4.864139E-03
   802.485  4.859055E-03
   802.916  4.853976E-03
   803.348  4.848902E-03
   803.780  4.843835E-03
   804.212  4.838774E-03
   804.645  4.833715E-03
   805.077  4.828664E-03
   805.510  4.823618E-03
   805.943  4.818577E-03
   806.377  4.813541E-03
   806.810  4.808509E-03
   807.244  4.803484E-03
   807.678  4.798464E-03
   808.113  4.793449E-03
   808.547  4.788440E-03
   808.982  4.783436E-03
   809.417  4.778437E-03
   809.852  4.773443E-03
   810.288  4.768453E-03
   810.724  4.763470E-03
   811.160  4.758494E-03
   811.596  4.753513E-03
   812.032  4.748520E-03
   812.469  4.743530E-03
   812.906  4.738548E-03
   813.343  4.733568E-03
   813.780  4.728572E-03
   814.218  4.723582E-03
   814.656  4.718596E-03
   815.094  4.713616E-03
   815.532  4.708641E-03
   815.971  4.703672E-03
   816.410  4.698708E-03
   816.849  4.693749E-03
   817.288  4.688795E-03
   817.727  4.683848E-03
   818.167  4.678905E-03
   818.607  4.673965E-03
   819.047  4.669034E-03
   819.488  4.664106E-03
   819.928  4.659182E-03
   820.369  4.654267E-03
   820.810  4.649354E-03
   821.252  4.644447E-03
   821.693  4.639547E-03
   822.135  4.634651E-03
   822.577  4.629761E-03
   823.020  4.624873E-03
   823.462  4.619993E-03
   823.905  4.615117E-03
   824.348  4.610247E-03
   824.791  4.605372E-03
   825.235  4.600485E-03
   825.679  4.595605E-03
   826.123  4.590732E-03
   826.567  4.585858E-03
   827.011  4.580985E-03
   827.456  4.576115E-03
   827.901  4.571249E-03
   828.346  4.566389E-03
   828.792  4.561535E-03
   829.237  4.556686E-03
   829.683  4.551842E-03
   830.130  4.547005E-03
   830.576  4.542170E-03
   831.023  4.537342E-03
   831.469  4.532517E-03
   831.917  4.527699E-03
   832.364  4.522888E-03
   832.812  4.518079E-03
   833.259  4.513277E-03
   833.708  4.508477E-03
   834.156  4.503686E-03
   834.604  4.498899E-03
   835.053  4.494116E-03
   835.502  4.489338E-03
   835.952  4.484566E-03
   836.401  4.479798E-03
   836.851  4.475037E-03
   837.301  4.470281E-03
   837.751  4.465528E-03
   838.202  4.460769E-03
   838.652  4.456006E-03
   839.103  4.451248E-03
   839.555  4.446496E-03
   840.006  4.441744E-03
   840.458  4.436994E-03
   840.910  4.432249E-03
   841.362  4.427507E-03
   841.814  4.422770E-03
   842.267  4.418038E-03
   842.720  4.413314E-03
   843.173  4.408593E-03
   843.627  4.403877E-03
   844.080  4.399166E-03
   844.534  4.394460E-03
   844.988  4.389761E-03
   845.443  4.385063E-03
   845.897  4.380374E-03
   846.352  4.375689E-03
   846.807  4.371008E-03
   847.263  4.366332E-03
   847.718  4.361661E-03
   848.174  4.356993E-03
   848.630  4.352335E-03
   849.087  4.347679E-03
   849.543  4.343027E-03
   850.000  4.338381E-03
   850.360  4.334727E-03
   850.720  4.331074E-03
   851.081  4.327424E-03
   851.441  4.323778E-03
   851.802  4.320123E-03
   852.162  4.316472E-03
   852.523  4.312822E-03
   852.884  4.309176E-03
   853.246  4.305533E-03
   853.607  4.301893E-03
   853.969  4.298252E-03
   854.330  4.294616E-03
   854.692  4.290982E-03
   855.054  4.287350E-03
   855.416  4.283724E-03
   855.779  4.280100E-03
   856.141  4.276479E-03
   856.504  4.272861E-03
   856.867  4.269244E-03
   857.229  4.265632E-03
   857.593  4.262023E-03
   857.956  4.258417E-03
   858.319  4.254815E-03
   858.683  4.251214E-03
   859.046  4.247617E-03
   859.410  4.244023E-03
   859.774  4.240434E-03
   860.138  4.236846E-03
   860.503  4.233261E-03
   860.867  4.229680E-03
   861.232  4.226100E-03
   861.597  4.222525E-03
   861.962  4.218951E-03
   862.327  4.215383E-03
   862.692  4.211816E-03
   863.057  4.208252E-03
   863.423  4.204692E-03
   863.789  4.201134E-03
   864.154  4.197579E-03
   864.520  4.194028E-03
   864.887  4.190479E-03
   865.253  4.186934E-03
   865.619  4.183384E-03
   865.986  4.179838E-03
   866.353  4.176294E-03
   866.720  4.172753E-03
   867.087  4.169215E-03
   867.454  4.165679E-03
   867.822  4.162145E-03
   868.189  4.158614E-03
   868.557  4.155086E-03
   868.925  4.151562E-03
   869.293  4.148041E-03
   869.661  4.144521E-03
   870.029  4.141006E-03
   870.398  4.137494E-03
   870.766  4.133984E-03
   871.135  4.130477E-03
   871.504  4.126973E-03
   871.873  4.123472E-03
   872.243  4.119974E-03
   872.612  4.116479E-03
   872.982  4.112987E-03
   873.352  4.109496E-03
   873.721  4.106012E-03
   874.091  4.102529E-03
   874.462  4.099049E-03
   874.832  4.095571E-03
   875.203  4.092097E-03
   875.573  4.088624E-03
   875.944  4.085156E-03
   876.315  4.081692E-03
   876.686  4.078228E-03
   877.058  4.074770E-03
   877.429  4.071312E-03
   877.801  4.067858E-03
   878.173  4.064407E-03
   878.545  4.060959E-03
   878.917  4.057515E-03
   879.289  4.054071E-03
   879.661  4.050626E-03
   880.034  4.047185E-03
   880.407  4.043746E-03
   880.780  4.040309E-03
   881.153  4.036876E-03
   881.526  4.033451E-03
   881.899  4.030031E-03
   882.273  4.026613E-03
   882.646  4.023198E-03
   883.020  4.019783E-03
   883.394  4.016375E-03
   883.768  4.012968E-03
   884.143  4.009564E-03
   884.517  4.006164E-03
   884.892  4.002766E-03
   885.267  3.999372E-03
   885.642  3.995979E-03
   886.017  3.992590E-03
   886.392  3.989203E-03
   886.768  3.985820E-03
   887.143  3.982439E-03
   887.519  3.979062E-03
   887.895  3.975686E-03
   888.271  3.972314E-03
   888.647  3.968944E-03
   889.023  3.965578E-03
   889.400  3.962216E-03
   889.777  3.958854E-03
   890.154  3.955496E-03
   890.531  3.952141E-03
   890.908  3.948790E-03
   891.285  3.945440E-03
   891.663  3.942093E-03
   892.040  3.938750E-03
   892.418  3.935409E-03
   892.796  3.932071E-03
   893.174  3.928736E-03
   893.553  3.925403E-03
   893.931  3.922066E-03
   894.310  3.918732E-03
   894.689  3.915402E-03
   895.067  3.912074E-03
   895.447  3.908750E-03
   895.826  3.905433E-03
   896.205  3.902121E-03
   896.585  3.898810E-03
   896.965  3.895502E-03
   897.345  3.892197E-03
   897.725  3.888895E-03
   898.105  3.885596E-03
   898.485  3.882300E-03
   898.866  3.879006E-03
   899.247  3.875715E-03
   899.627  3.872427E-03
   900.008  3.869143E-03
   900.390  3.865859E-03
   900.771  3.862580E-03
   901.153  3.859304E-03
   901.534  3.856030E-03
   901.916  3.852759E-03
   902.298  3.849490E-03
   902.680  3.846224E-03
   903.063  3.842961E-03
   903.445  3.839702E-03
   903.828  3.836443E-03
   904.211  3.833189E-03
   904.594  3.829936E-03
   904.977  3.826687E-03
   905.360  3.823441E-03
   905.743  3.820197E-03
   906.127  3.816957E-03
   906.511  3.813718E-03
   906.895  3.810483E-03
   907.279  3.807250E-03
   907.663  3.804020E-03
   908.048  3.800792E-03
   908.432  3.797566E-03
   908.817  3.794340E-03
   909.202  3.791119E-03
   909.587  3.787900E-03
   909.972  3.784683E-03
   910.358  3.781444E-03
   910.743  3.778206E-03
   911.129  3.774971E-03
   911.515  3.771740E-03
   911.901  3.768511E-03
   912.287  3.765285E-03
   912.674  3.762061E-03
   913.060  3.758841E-03
   913.447  3.755623E-03
   913.834  3.752408E-03
   914.221  3.749196E-03
   914.608  3.745986E-03
   914.996  3.742779E-03
   915.383  3.739574E-03
   915.771  3.736373E-03
   916.159  3.733176E-03
   916.547  3.729979E-03
   916.935  3.726786E-03
   917.323  3.723596E-03
   917.712  3.720407E-03
   918.101  3.717223E-03
   918.490  3.714040E-03
   918.879  3.710861E-03
   919.268  3.707685E-03
   919.657  3.704510E-03
   920.047  3.701338E-03
   920.436  3.698170E-03
   920.826  3.695004E-03
   921.216  3.691840E-03
   921.606  3.688680E-03
   921.997  3.685521E-03
   922.387  3.682366E-03
   922.778  3.679211E-03
   923.169  3.676057E-03
   923.560  3.672905E-03
   923.951  3.669755E-03
   924.342  3.666608E-03
   924.734  3.663462E-03
   925.125  3.660306E-03
   925.517  3.657151E-03
   925.909  3.654001E-03
   926.302  3.650852E-03
   926.694  3.647707E-03
   927.086  3.644563E-03
   927.479  3.641422E-03
   927.872  3.638288E-03
   928.265  3.635152E-03
   928.658  3.632019E-03
   929.051  3.628890E-03
   929.445  3.625762E-03
   929.839  3.622639E-03
   930.232  3.619517E-03
   930.626  3.616399E-03
   931.021  3.613283E-03
   931.415  3.610169E-03
   931.809  3.607059E-03
   932.204  3.603950E-03
   932.599  3.600846E-03
   932.994  3.597744E-03
   933.389  3.594642E-03
   933.784  3.591546E-03
   934.180  3.588451E-03
   934.576  3.585359E-03
   934.971  3.582270E-03
   935.367  3.579183E-03
   935.764  3.576098E-03
   936.160  3.573017E-03
   936.557  3.569938E-03
   936.953  3.566862E-03
   937.350  3.563789E-03
   937.747  3.560713E-03
   938.144  3.557634E-03
   938.542  3.554557E-03
   938.939  3.551484E-03
   939.337  3.548413E-03
   939.735  3.545342E-03
   940.133  3.542265E-03
   940.531  3.539191E-03
   940.929  3.536120E-03
   941.328  3.533050E-03
   941.727  3.529984E-03
   942.125  3.526919E-03
   942.524  3.523859E-03
   942.924  3.520801E-03
   943.323  3.517745E-03
   943.723  3.514692E-03
   944.122  3.511640E-03
   944.522  3.508594E-03
   944.922  3.505549E-03
   945.322  3.502506E-03
   945.723  3.499466E-03
   946.123  3.496429E-03
   946.524  3.493394E-03
   946.925  3.490363E-03
   947.326  3.487334E-03
   947.727  3.484307E-03
   948.129  3.481282E-03
   948.530  3.478260E-03
   948.932  3.475243E-03
   949.334  3.472226E-03
   949.736  3.469212E-03
   950.138  3.466201E-03
   950.541  3.463193E-03
   950.943  3.460187E-03
   951.346  3.457183E-03
   951.749  3.454182E-03
   952.152  3.451185E-03
   952.556  3.448189E-03
   952.959  3.445191E-03
   953.363  3.442194E-03
   953.766  3.439199E-03
   954.170  3.436205E-03
   954.575  3.433217E-03
   954.979  3.430226E-03
   955.383  3.427234E-03
   955.788  3.424244E-03
   956.193  3.421258E-03
   956.598  3.418273E-03
   957.003  3.415290E-03
   957.408  3.412311E-03
   957.814  3.409335E-03
   958.220  3.406359E-03
   958.625  3.403388E-03
   959.031  3.400419E-03
   959.438  3.397453E-03
   959.844  3.394489E-03
   960.251  3.391526E-03
   960.657  3.388569E-03
   961.064  3.385613E-03
   961.471  3.382659E-03
   961.879  3.379708E-03
   962.286  3.376759E-03
   962.693  3.373813E-03
   963.101  3.370869E-03
   963.509  3.367929E-03
   963.917  3.364990E-03
   964.326  3.362054E-03
   964.734  3.359122E-03
   965.143  3.356190E-03
   965.551  3.353263E-03
   965.960  3.350338E-03
   966.370  3.347415E-03
   966.779  3.344494E-03
   967.188  3.341577E-03
   967.598  3.338661E-03
   968.008  3.335748E-03
   968.418  3.332833E-03
   968.828  3.329918E-03
   969.238  3.327005E-03
   969.649  3.324095E-03
   970.060  3.321188E-03
   970.470  3.318280E-03
   970.881  3.315372E-03
   971.293  3.312465E-03
   971.704  3.309561E-03
   972.116  3.306660E-03
   972.527  3.303762E-03
   972.939  3.300865E-03
   973.351  3.297970E-03
   973.764  3.295080E-03
   974.176  3.292191E-03
   974.589  3.289304E-03
   975.002  3.286421E-03
   975.414  3.283540E-03
   975.828  3.280661E-03
   976.241  3.277785E-03
   976.654  3.274911E-03
   977.068  3.272041E-03
   977.482  3.269172E-03
   977.896  3.266305E-03
   978.310  3.263442E-03
   978.725  3.260581E-03
   979.139  3.257723E-03
   979.554  3.254866E-03
   979.969  3.252013E-03
   980.384  3.249161E-03
   980.799  3.246312E-03
   981.214  3.243467E-03
   981.630  3.240622E-03
   982.046  3.237781E-03
   982.462  3.234943E-03
   982.878  3.232107E-03
   983.294  3.229273E-03
   983.711  3.226441E-03
   984.127  3.223608E-03
   984.544  3.220777E-03
   984.961  3.217947E-03
   985.378  3.215120E-03
   985.796  3.212296E-03
   986.213  3.209471E-03
   986.631  3.206644E-03
   987.049  3.203821E-03
   987.467  3.201000E-03
   987.885  3.198182E-03
   988.304  3.195365E-03
   988.722  3.192552E-03
   989.141  3.189740E-03
   989.560  3.186932E-03
   989.979  3.184125E-03
   990.398  3.181321E-03
   990.818  3.178519E-03
   991.238  3.175721E-03
   991.657  3.172925E-03
   992.077  3.170131E-03
   992.498  3.167339E-03
   992.918  3.164550E-03
   993.339  3.161763E-03
   993.759  3.158979E-03
   994.180  3.156197E-03
   994.601  3.153418E-03
   995.023  3.150641E-03
   995.444  3.147866E-03
   995.866  3.145095E-03
   996.287  3.142325E-03
   996.709  3.139558E-03
   997.132  3.136793E-03
   997.554  3.134030E-03
   997.976  3.131271E-03
   998.399  3.128513E-03
   998.822  3.125759E-03
   999.245  3.123005E-03
   999.668  3.120255E-03
   1000.09  3.117503E-03
   1000.52  3.114753E-03
   1000.94  3.112005E-03
   1001.36  3.109259E-03
   1001.79  3.106517E-03
   1002.21  3.103771E-03
   1002.64  3.101026E-03
   1003.06  3.098283E-03
   1003.49  3.095543E-03
   1003.91  3.092804E-03
   1004.34  3.090070E-03
   1004.76  3.087336E-03
   1005.19  3.084605E-03
   1005.61  3.081877E-03
   1006.04  3.079151E-03
   1006.46  3.076427E-03
   1006.89  3.073707E-03
   1007.32  3.070987E-03
   1007.74  3.068271E-03
   1008.17  3.065557E-03
   1008.60  3.062845E-03
   1009.02  3.060136E-03
   1009.45  3.057429E-03
   1009.88  3.054724E-03
   1010.31  3.052022E-03
   1010.74  3.049322E-03
   1011.16  3.046625E-03
   1011.59  3.043930E-03
   1012.02  3.041237E-03
   1012.45  3.038547E-03
   1012.88  3.035860E-03
   1013.31  3.033174E-03
   1013.74  3.030491E-03
   1014.17  3.027810E-03
   1014.59  3.025131E-03
   1015.02  3.022455E-03
   1015.45  3.019782E-03
   1015.88  3.017110E-03
   1016.32  3.014439E-03
   1016.75  3.011770E-03
   1017.18  3.009103E-03
   1017.61  3.006439E-03
   1018.04  3.003777E-03
   1018.47  3.001113E-03
   1018.90  2.998449E-03
   1019.33  2.995789E-03
   1019.76  2.993128E-03
   1020.20  2.990472E-03
   1020.63  2.987819E-03
   1021.06  2.985167E-03
   1021.49  2.982517E-03
   1021.93  2.979869E-03
   1022.36  2.977225E-03
   1022.79  2.974582E-03
   1023.22  2.971942E-03
   1023.66  2.969304E-03
   1024.09  2.966669E-03
   1024.53  2.964036E-03
   1024.96  2.961404E-03
   1025.39  2.958776E-03
   1025.83  2.956150E-03
   1026.26  2.953527E-03
   1026.70  2.950904E-03
   1027.13  2.948285E-03
   1027.57  2.945669E-03
   1028.00  2.943054E-03
   1028.44  2.940441E-03
   1028.87  2.937831E-03
   1029.31  2.935224E-03
   1029.74  2.932618E-03
   1030.18  2.930015E-03
   1030.62  2.927414E-03
   1031.05  2.924815E-03
   1031.49  2.922220E-03
   1031.93  2.919626E-03
   1032.36  2.917033E-03
   1032.80  2.914445E-03
   1033.24  2.911858E-03
   1033.68  2.909273E-03
   1034.11  2.906691E-03
   1034.55  2.904110E-03
   1034.99  2.901528E-03
   1035.43  2.898946E-03
   1035.87  2.896365E-03
   1036.31  2.893789E-03
   1036.75  2.891213E-03
   1037.18  2.888641E-03
   1037.62  2.886071E-03
   1038.06  2.883503E-03
   1038.50  2.880936E-03
   1038.94  2.878373E-03
   1039.38  2.875812E-03
   1039.82  2.873251E-03
   1040.26  2.870695E-03
   1040.70  2.868140E-03
   1041.14  2.865588E-03
   1041.59  2.863037E-03
   1042.03  2.860489E-03
   1042.47  2.857944E-03
   1042.91  2.855401E-03
   1043.35  2.852860E-03
   1043.79  2.850321E-03
   1044.24  2.847783E-03
   1044.68  2.845250E-03
   1045.12  2.842717E-03
   1045.56  2.840187E-03
   1046.01  2.837660E-03
   1046.45  2.835134E-03
   1046.89  2.832612E-03
   1047.34  2.830090E-03
   1047.78  2.827571E-03
   1048.22  2.825055E-03
   1048.67  2.822540E-03
   1049.11  2.820027E-03
   1049.56  2.817512E-03
   1050.00  2.814998E-03
   1050.37  2.812927E-03
   1050.73  2.810855E-03
   1051.10  2.808788E-03
   1051.47  2.806717E-03
   1051.84  2.804644E-03
   1052.20  2.802573E-03
   1052.57  2.800503E-03
   1052.94  2.798434E-03
   1053.31  2.796368E-03
   1053.68  2.794302E-03
   1054.04  2.792238E-03
   1054.41  2.790176E-03
   1054.78  2.788115E-03
   1055.15  2.786056E-03
   1055.52  2.783998E-03
   1055.89  2.781941E-03
   1056.26  2.779887E-03
   1056.62  2.777833E-03
   1056.99  2.775783E-03
   1057.36  2.773733E-03
   1057.73  2.771683E-03
   1058.10  2.769635E-03
   1058.47  2.767591E-03
   1058.84  2.765547E-03
   1059.21  2.763503E-03
   1059.58  2.761462E-03
   1059.95  2.759422E-03
   1060.32  2.757384E-03
   1060.69  2.755347E-03
   1061.06  2.753312E-03
   1061.43  2.751279E-03
   1061.81  2.749247E-03
   1062.18  2.747215E-03
   1062.55  2.745185E-03
   1062.92  2.743158E-03
   1063.29  2.741132E-03
   1063.66  2.739107E-03
   1064.03  2.737084E-03
   1064.41  2.735062E-03
   1064.78  2.733041E-03
   1065.15  2.731023E-03
   1065.52  2.729005E-03
   1065.89  2.726990E-03
   1066.27  2.724972E-03
   1066.64  2.722953E-03
   1067.01  2.720936E-03
   1067.39  2.718922E-03
   1067.76  2.716907E-03
   1068.13  2.714895E-03
   1068.51  2.712881E-03
   1068.88  2.710865E-03
   1069.25  2.708850E-03
   1069.63  2.706836E-03
   1070.00  2.704823E-03
   1070.37  2.702813E-03
   1070.75  2.700803E-03
   1071.12  2.698796E-03
   1071.50  2.696790E-03
   1071.87  2.694783E-03
   1072.24  2.692780E-03
   1072.62  2.690779E-03
   1072.99  2.688777E-03
   1073.37  2.686779E-03
   1073.74  2.684781E-03
   1074.12  2.682785E-03
   1074.50  2.680791E-03
   1074.87  2.678799E-03
   1075.25  2.676806E-03
   1075.62  2.674815E-03
   1076.00  2.672827E-03
   1076.37  2.670840E-03
   1076.75  2.668854E-03
   1077.13  2.666869E-03
   1077.50  2.664886E-03
   1077.88  2.662906E-03
   1078.26  2.660925E-03
   1078.63  2.658947E-03
   1079.01  2.656970E-03
   1079.39  2.654995E-03
   1079.76  2.653020E-03
   1080.14  2.651048E-03
   1080.52  2.649077E-03
   1080.90  2.647107E-03
   1081.27  2.645139E-03
   1081.65  2.643172E-03
   1082.03  2.641207E-03
   1082.41  2.639242E-03
   1082.79  2.637280E-03
   1083.16  2.635320E-03
   1083.54  2.633357E-03
   1083.92  2.631396E-03
   1084.30  2.629437E-03
   1084.68  2.627479E-03
   1085.06  2.625522E-03
   1085.44  2.623566E-03
   1085.82  2.621609E-03
   1086.20  2.619646E-03
   1086.58  2.617684E-03
   1086.96  2.615725E-03
   1087.34  2.613767E-03
   1087.72  2.611810E-03
   1088.10  2.609855E-03
   1088.48  2.607901E-03
   1088.86  2.605950E-03
   1089.24  2.603998E-03
   1089.62  2.602049E-03
   1090.00  2.600101E-03
   1090.38  2.598154E-03
   1090.76  2.596209E-03
   1091.14  2.594266E-03
   1091.52  2.592324E-03
   1091.90  2.590383E-03
   1092.29  2.588443E-03
   1092.67  2.586505E-03
   1093.05  2.584569E-03
   1093.43  2.582633E-03
   1093.81  2.580700E-03
   1094.20  2.578768E-03
   1094.58  2.576837E-03
   1094.96  2.574909E-03
   1095.34  2.572980E-03
   1095.73  2.571054E-03
   1096.11  2.569128E-03
   1096.49  2.567206E-03
   1096.88  2.565283E-03
   1097.26  2.563362E-03
   1097.64  2.561444E-03
   1098.03  2.559525E-03
   1098.41  2.557610E-03
   1098.79  2.555694E-03
   1099.18  2.553781E-03
   1099.56  2.551869E-03
   1099.95  2.549958E-03
   1100.33  2.548049E-03
   1100.71  2.546140E-03
   1101.10  2.544232E-03
   1101.48  2.542324E-03
   1101.87  2.540418E-03
   1102.25  2.538513E-03
   1102.64  2.536610E-03
   1103.02  2.534708E-03
   1103.41  2.532812E-03
   1103.80  2.530919E-03
   1104.18  2.529029E-03
   1104.57  2.527140E-03
   1104.95  2.525251E-03
   1105.34  2.523365E-03
   1105.73  2.521479E-03
   1106.11  2.519595E-03
   1106.50  2.517713E-03
   1106.89  2.515832E-03
   1107.27  2.513952E-03
   1107.66  2.512074E-03
   1108.05  2.510197E-03
   1108.43  2.508321E-03
   1108.82  2.506448E-03
   1109.21  2.504575E-03
   1109.60  2.502704E-03
   1109.98  2.500834E-03
   1110.37  2.498965E-03
   1110.76  2.497097E-03
   1111.15  2.495232E-03
   1111.54  2.493368E-03
   1111.92  2.491505E-03
   1112.31  2.489643E-03
   1112.70  2.487782E-03
   1113.09  2.485923E-03
   1113.48  2.484066E-03
   1113.87  2.482210E-03
   1114.26  2.480356E-03
   1114.65  2.478502E-03
   1115.04  2.476650E-03
   1115.43  2.474799E-03
   1115.82  2.472950E-03
   1116.21  2.471101E-03
   1116.60  2.469256E-03
   1116.99  2.467411E-03
   1117.38  2.465567E-03
   1117.77  2.463724E-03
   1118.16  2.461883E-03
   1118.55  2.460044E-03
   1118.94  2.458203E-03
   1119.33  2.456364E-03
   1119.72  2.454526E-03
   1120.11  2.452689E-03
   1120.51  2.450855E-03
   1120.90  2.449021E-03
   1121.29  2.447189E-03
   1121.68  2.445359E-03
   1122.07  2.443532E-03
   1122.46  2.441704E-03
   1122.86  2.439878E-03
   1123.25  2.438053E-03
   1123.64  2.436230E-03
   1124.03  2.434408E-03
   1124.43  2.432588E-03
   1124.82  2.430769E-03
   1125.21  2.428952E-03
   1125.61  2.427135E-03
   1126.00  2.425320E-03
   1126.39  2.423506E-03
   1126.79  2.421694E-03
   1127.18  2.419883E-03
   1127.57  2.418073E-03
   1127.97  2.416264E-03
   1128.36  2.414459E-03
   1128.76  2.412652E-03
   1129.15  2.410848E-03
   1129.55  2.409046E-03
   1129.94  2.407243E-03
   1130.34  2.405443E-03
   1130.73  2.403644E-03
   1131.13  2.401847E-03
   1131.52  2.400051E-03
   1131.92  2.398256E-03
   1132.31  2.396462E-03
   1132.71  2.394670E-03
   1133.10  2.392879E-03
   1133.50  2.391089E-03
   1133.90  2.389301E-03
   1134.29  2.387513E-03
   1134.69  2.385728E-03
   1135.09  2.383944E-03
   1135.48  2.382161E-03
   1135.88  2.380379E-03
   1136.28  2.378599E-03
   1136.67  2.376819E-03
   1137.07  2.375039E-03
   1137.47  2.373262E-03
   1137.86  2.371484E-03
   1138.26  2.369709E-03
   1138.66  2.367934E-03
   1139.06  2.366161E-03
   1139.46  2.364388E-03
   1139.85  2.362617E-03
   1140.25  2.360846E-03
   1140.65  2.359077E-03
   1141.05  2.357310E-03
   1141.45  2.355543E-03
   1141.85  2.353778E-03
   1142.25  2.352014E-03
   1142.65  2.350252E-03
   1143.04  2.348490E-03
   1143.44  2.346730E-03
   1143.84  2.344971E-03
   1144.24  2.343214E-03
   1144.64  2.341457E-03
   1145.04  2.339703E-03
   1145.44  2.337949E-03
   1145.84  2.336197E-03
   1146.24  2.334447E-03
   1146.65  2.332696E-03
   1147.05  2.330949E-03
   1147.45  2.329202E-03
   1147.85  2.327455E-03
   1148.25  2.325712E-03
   1148.65  2.323969E-03
   1149.05  2.322227E-03
   1149.45  2.320486E-03
   1149.85  2.318747E-03
   1150.26  2.317009E-03
   1150.66  2.315272E-03
   1151.06  2.313537E-03
   1151.46  2.311803E-03
   1151.87  2.310070E-03
   1152.27  2.308339E-03
   1152.67  2.306609E-03
   1153.07  2.304880E-03
   1153.48  2.303152E-03
   1153.88  2.301426E-03
   1154.28  2.299700E-03
   1154.69  2.297977E-03
   1155.09  2.296255E-03
   1155.49  2.294531E-03
   1155.90  2.292810E-03
   1156.30  2.291090E-03
   1156.71  2.289371E-03
   1157.11  2.287654E-03
   1157.51  2.285938E-03
   1157.92  2.284220E-03
   1158.32  2.282505E-03
   1158.73  2.280790E-03
   1159.13  2.279076E-03
   1159.54  2.277366E-03
   1159.94  2.275654E-03
   1160.35  2.273945E-03
   1160.75  2.272236E-03
   1161.16  2.270530E-03
   1161.57  2.268824E-03
   1161.97  2.267119E-03
   1162.38  2.265417E-03
   1162.78  2.263715E-03
   1163.19  2.262014E-03
   1163.60  2.260314E-03
   1164.00  2.258616E-03
   1164.41  2.256920E-03
   1164.82  2.255225E-03
   1165.22  2.253530E-03
   1165.63  2.251836E-03
   1166.04  2.250146E-03
   1166.45  2.248455E-03
   1166.85  2.246766E-03
   1167.26  2.245077E-03
   1167.67  2.243390E-03
   1168.08  2.241706E-03
   1168.49  2.240021E-03
   1168.89  2.238339E-03
   1169.30  2.236657E-03
   1169.71  2.234977E-03
   1170.12  2.233297E-03
   1170.53  2.231619E-03
   1170.94  2.229943E-03
   1171.35  2.228267E-03
   1171.76  2.226593E-03
   1172.17  2.224920E-03
   1172.58  2.223248E-03
   1172.98  2.221578E-03
   1173.39  2.219908E-03
   1173.80  2.218239E-03
   1174.22  2.216573E-03
   1174.63  2.214906E-03
   1175.04  2.213240E-03
   1175.45  2.211576E-03
   1175.86  2.209913E-03
   1176.27  2.208252E-03
   1176.68  2.206589E-03
   1177.09  2.204928E-03
   1177.50  2.203268E-03
   1177.91  2.201609E-03
   1178.33  2.199952E-03
   1178.74  2.198296E-03
   1179.15  2.196640E-03
   1179.56  2.194986E-03
   1179.97  2.193334E-03
   1180.39  2.191683E-03
   1180.80  2.190034E-03
   1181.21  2.188384E-03
   1181.62  2.186736E-03
   1182.04  2.185090E-03
   1182.45  2.183445E-03
   1182.86  2.181801E-03
   1183.28  2.180158E-03
   1183.69  2.178516E-03
   1184.10  2.176877E-03
   1184.52  2.175237E-03
   1184.93  2.173600E-03
   1185.35  2.171963E-03
   1185.76  2.170327E-03
   1186.17  2.168694E-03
   1186.59  2.167060E-03
   1187.00  2.165428E-03
   1187.42  2.163798E-03
   1187.83  2.162169E-03
   1188.25  2.160541E-03
   1188.66  2.158914E-03
   1189.08  2.157288E-03
   1189.49  2.155664E-03
   1189.91  2.154040E-03
   1190.33  2.152418E-03
   1190.74  2.150798E-03
   1191.16  2.149178E-03
   1191.57  2.147559E-03
   1191.99  2.145943E-03
   1192.41  2.144326E-03
   1192.82  2.142711E-03
   1193.24  2.141097E-03
   1193.66  2.139483E-03
   1194.07  2.137871E-03
   1194.49  2.136260E-03
   1194.91  2.134651E-03
   1195.33  2.133043E-03
   1195.74  2.131433E-03
   1196.16  2.129822E-03
   1196.58  2.128213E-03
   1197.00  2.126605E-03
   1197.42  2.125000E-03
   1197.84  2.123395E-03
   1198.25  2.121791E-03
   1198.67  2.120188E-03
   1199.09  2.118587E-03
   1199.51  2.116987E-03
   1199.93  2.115388E-03
   1200.35  2.113789E-03
   1200.77  2.112194E-03
   1201.19  2.110598E-03
   1201.61  2.109004E-03
   1202.03  2.107410E-03
   1202.45  2.105818E-03
   1202.87  2.104229E-03
   1203.29  2.102639E-03
   1203.71  2.101051E-03
   1204.13  2.099464E-03
   1204.55  2.097878E-03
   1204.97  2.096293E-03
   1205.39  2.094710E-03
   1205.81  2.093127E-03
   1206.24  2.091546E-03
   1206.66  2.089966E-03
   1207.08  2.088388E-03
   1207.50  2.086810E-03
   1207.92  2.085233E-03
   1208.34  2.083658E-03
   1208.77  2.082084E-03
   1209.19  2.080512E-03
   1209.61  2.078940E-03
   1210.03  2.077370E-03
   1210.46  2.075801E-03
   1210.88  2.074232E-03
   1211.30  2.072665E-03
   1211.73  2.071099E-03
   1212.15  2.069534E-03
   1212.57  2.067971E-03
   1213.00  2.066408E-03
   1213.42  2.064849E-03
   1213.85  2.063287E-03
   1214.27  2.061728E-03
   1214.69  2.060171E-03
   1215.12  2.058610E-03
   1215.54  2.057052E-03
   1215.97  2.055493E-03
   1216.39  2.053936E-03
   1216.82  2.052380E-03
   1217.24  2.050826E-03
   1217.67  2.049272E-03
   1218.09  2.047720E-03
   1218.52  2.046169E-03
   1218.95  2.044620E-03
   1219.37  2.043071E-03
   1219.80  2.041523E-03
   1220.22  2.039976E-03
   1220.65  2.038431E-03
   1221.08  2.036887E-03
   1221.50  2.035344E-03
   1221.93  2.033802E-03
   1222.36  2.032262E-03
   1222.78  2.030722E-03
   1223.21  2.029184E-03
   1223.64  2.027647E-03
   1224.07  2.026111E-03
   1224.50  2.024576E-03
   1224.92  2.023042E-03
   1225.35  2.021510E-03
   1225.78  2.019979E-03
   1226.21  2.018448E-03
   1226.64  2.016919E-03
   1227.06  2.015392E-03
   1227.49  2.013865E-03
   1227.92  2.012339E-03
   1228.35  2.010815E-03
   1228.78  2.009291E-03
   1229.21  2.007769E-03
   1229.64  2.006248E-03
   1230.07  2.004728E-03
   1230.50  2.003209E-03
   1230.93  2.001691E-03
   1231.36  2.000175E-03
   1231.79  1.998659E-03
   1232.22  1.997145E-03
   1232.65  1.995632E-03
   1233.08  1.994120E-03
   1233.51  1.992609E-03
   1233.94  1.991099E-03
   1234.38  1.989590E-03
   1234.81  1.988078E-03
   1235.24  1.986568E-03
   1235.67  1.985058E-03
   1236.10  1.983549E-03
   1236.53  1.982042E-03
   1236.97  1.980537E-03
   1237.40  1.979031E-03
   1237.83  1.977527E-03
   1238.26  1.976025E-03
   1238.70  1.974523E-03
   1239.13  1.973023E-03
   1239.56  1.971524E-03
   1239.99  1.970025E-03
   1240.43  1.968528E-03
   1240.86  1.967033E-03
   1241.30  1.965538E-03
   1241.73  1.964044E-03
   1242.16  1.962551E-03
   1242.60  1.961059E-03
   1243.03  1.959570E-03
   1243.47  1.958080E-03
   1243.90  1.956592E-03
   1244.34  1.955105E-03
   1244.77  1.953620E-03
   1245.20  1.952135E-03
   1245.64  1.950651E-03
   1246.08  1.949169E-03
   1246.51  1.947687E-03
   1246.95  1.946207E-03
   1247.38  1.944728E-03
   1247.82  1.943250E-03
   1248.25  1.941773E-03
   1248.69  1.940297E-03
   1249.13  1.938823E-03
   1249.56  1.937349E-03
   1250.00  1.935877E-03
   1250.62  1.933794E-03
   1251.24  1.931713E-03
   1251.86  1.929634E-03
   1252.48  1.927556E-03
   1253.10  1.925481E-03
   1253.72  1.923407E-03
   1254.34  1.921336E-03
   1254.96  1.919260E-03
   1255.58  1.917188E-03
   1256.20  1.915117E-03
   1256.82  1.913049E-03
   1257.44  1.910983E-03
   1258.06  1.908918E-03
   1258.69  1.906856E-03
   1259.31  1.904797E-03
   1259.93  1.902739E-03
   1260.56  1.900685E-03
   1261.18  1.898631E-03
   1261.80  1.896580E-03
   1262.43  1.894532E-03
   1263.05  1.892486E-03
   1263.68  1.890442E-03
   1264.30  1.888399E-03
   1264.93  1.886359E-03
   1265.56  1.884322E-03
   1266.18  1.882287E-03
   1266.81  1.880253E-03
   1267.44  1.878222E-03
   1268.06  1.876193E-03
   1268.69  1.874166E-03
   1269.32  1.872141E-03
   1269.95  1.870119E-03
   1270.57  1.868099E-03
   1271.20  1.866081E-03
   1271.83  1.864064E-03
   1272.46  1.862048E-03
   1273.09  1.860033E-03
   1273.72  1.858021E-03
   1274.35  1.856011E-03
   1274.98  1.853999E-03
   1275.61  1.851986E-03
   1276.24  1.849976E-03
   1276.88  1.847969E-03
   1277.51  1.845963E-03
   1278.14  1.843960E-03
   1278.77  1.841958E-03
   1279.40  1.839959E-03
   1280.04  1.837961E-03
   1280.67  1.835966E-03
   1281.30  1.833973E-03
   1281.94  1.831983E-03
   1282.57  1.829994E-03
   1283.21  1.828008E-03
   1283.84  1.826023E-03
   1284.48  1.824041E-03
   1285.11  1.822062E-03
   1285.75  1.820084E-03
   1286.39  1.818107E-03
   1287.02  1.816134E-03
   1287.66  1.814162E-03
   1288.30  1.812193E-03
   1288.93  1.810226E-03
   1289.57  1.808260E-03
   1290.21  1.806297E-03
   1290.85  1.804337E-03
   1291.49  1.802378E-03
   1292.13  1.800420E-03
   1292.77  1.798463E-03
   1293.41  1.796508E-03
   1294.05  1.794554E-03
   1294.69  1.792603E-03
   1295.33  1.790651E-03
   1295.97  1.788696E-03
   1296.61  1.786742E-03
   1297.25  1.784790E-03
   1297.89  1.782840E-03
   1298.53  1.780893E-03
   1299.18  1.778948E-03
   1299.82  1.777005E-03
   1300.46  1.775063E-03
   1301.11  1.773124E-03
   1301.75  1.771188E-03
   1302.39  1.769252E-03
   1303.04  1.767320E-03
   1303.68  1.765389E-03
   1304.33  1.763461E-03
   1304.97  1.761533E-03
   1305.62  1.759609E-03
   1306.27  1.757687E-03
   1306.91  1.755767E-03
   1307.56  1.753849E-03
   1308.21  1.751933E-03
   1308.85  1.750019E-03
   1309.50  1.748107E-03
   1310.15  1.746197E-03
   1310.80  1.744289E-03
   1311.45  1.742383E-03
   1312.09  1.740480E-03
   1312.74  1.738578E-03
   1313.39  1.736678E-03
   1314.04  1.734779E-03
   1314.69  1.732882E-03
   1315.34  1.730986E-03
   1316.00  1.729093E-03
   1316.65  1.727195E-03
   1317.30  1.725298E-03
   1317.95  1.723401E-03
   1318.60  1.721508E-03
   1319.25  1.719616E-03
   1319.91  1.717726E-03
   1320.56  1.715839E-03
   1321.21  1.713954E-03
   1321.87  1.712070E-03
   1322.52  1.710189E-03
   1323.18  1.708309E-03
   1323.83  1.706432E-03
   1324.49  1.704556E-03
   1325.14  1.702683E-03
   1325.80  1.700813E-03
   1326.45  1.698942E-03
   1327.11  1.697075E-03
   1327.77  1.695211E-03
   1328.42  1.693347E-03
   1329.08  1.691486E-03
   1329.74  1.689627E-03
   1330.40  1.687771E-03
   1331.05  1.685916E-03
   1331.71  1.684062E-03
   1332.37  1.682211E-03
   1333.03  1.680363E-03
   1333.69  1.678515E-03
   1334.35  1.676670E-03
   1335.01  1.674826E-03
   1335.67  1.672984E-03
   1336.33  1.671143E-03
   1336.99  1.669306E-03
   1337.66  1.667466E-03
   1338.32  1.665623E-03
   1338.98  1.663782E-03
   1339.64  1.661942E-03
   1340.31  1.660105E-03
   1340.97  1.658270E-03
   1341.63  1.656436E-03
   1342.30  1.654605E-03
   1342.96  1.652776E-03
   1343.63  1.650949E-03
   1344.29  1.649124E-03
   1344.96  1.647300E-03
   1345.62  1.645478E-03
   1346.29  1.643659E-03
   1346.95  1.641842E-03
   1347.62  1.640027E-03
   1348.29  1.638214E-03
   1348.95  1.636402E-03
   1349.62  1.634592E-03
   1350.29  1.632785E-03
   1350.96  1.630980E-03
   1351.63  1.629176E-03
   1352.29  1.627375E-03
   1352.96  1.625575E-03
   1353.63  1.623778E-03
   1354.30  1.621982E-03
   1354.97  1.620188E-03
   1355.64  1.618397E-03
   1356.31  1.616607E-03
   1356.98  1.614818E-03
   1357.66  1.613031E-03
   1358.33  1.611245E-03
   1359.00  1.609463E-03
   1359.67  1.607672E-03
   1360.35  1.605883E-03
   1361.02  1.604095E-03
   1361.69  1.602308E-03
   1362.37  1.600525E-03
   1363.04  1.598744E-03
   1363.71  1.596963E-03
   1364.39  1.595186E-03
   1365.06  1.593410E-03
   1365.74  1.591636E-03
   1366.42  1.589864E-03
   1367.09  1.588094E-03
   1367.77  1.586326E-03
   1368.45  1.584559E-03
   1369.12  1.582795E-03
   1369.80  1.581033E-03
   1370.48  1.579272E-03
   1371.16  1.577514E-03
   1371.83  1.575758E-03
   1372.51  1.574003E-03
   1373.19  1.572250E-03
   1373.87  1.570500E-03
   1374.55  1.568751E-03
   1375.23  1.567004E-03
   1375.91  1.565259E-03
   1376.59  1.563516E-03
   1377.27  1.561775E-03
   1377.96  1.560036E-03
   1378.64  1.558298E-03
   1379.32  1.556561E-03
   1380.00  1.554827E-03
   1380.69  1.553094E-03
   1381.37  1.551358E-03
   1382.05  1.549617E-03
   1382.74  1.547879E-03
   1383.42  1.546143E-03
   1384.10  1.544407E-03
   1384.79  1.542674E-03
   1385.48  1.540944E-03
   1386.16  1.539215E-03
   1386.85  1.537488E-03
   1387.53  1.535763E-03
   1388.22  1.534040E-03
   1388.91  1.532319E-03
   1389.59  1.530599E-03
   1390.28  1.528881E-03
   1390.97  1.527166E-03
   1391.66  1.525452E-03
   1392.35  1.523741E-03
   1393.04  1.522031E-03
   1393.72  1.520323E-03
   1394.41  1.518616E-03
   1395.10  1.516912E-03
   1395.79  1.515210E-03
   1396.49  1.513510E-03
   1397.18  1.511811E-03
   1397.87  1.510115E-03
   1398.56  1.508419E-03
   1399.25  1.506727E-03
   1399.94  1.505036E-03
   1400.64  1.503347E-03
   1401.33  1.501658E-03
   1402.02  1.499973E-03
   1402.72  1.498288E-03
   1403.41  1.496605E-03
   1404.11  1.494912E-03
   1404.80  1.493220E-03
   1405.50  1.491531E-03
   1406.19  1.489844E-03
   1406.89  1.488158E-03
   1407.58  1.486474E-03
   1408.28  1.484792E-03
   1408.98  1.483113E-03
   1409.67  1.481434E-03
   1410.37  1.479758E-03
   1411.07  1.478084E-03
   1411.77  1.476411E-03
   1412.47  1.474741E-03
   1413.16  1.473072E-03
   1413.86  1.471405E-03
   1414.56  1.469740E-03
   1415.26  1.468077E-03
   1415.96  1.466415E-03
   1416.66  1.464756E-03
   1417.37  1.463098E-03
   1418.07  1.461442E-03
   1418.77  1.459789E-03
   1419.47  1.458137E-03
   1420.17  1.456487E-03
   1420.88  1.454838E-03
   1421.58  1.453191E-03
   1422.28  1.451546E-03
   1422.99  1.449904E-03
   1423.69  1.448262E-03
   1424.39  1.446623E-03
   1425.10  1.444985E-03
   1425.80  1.443349E-03
   1426.51  1.441706E-03
   1427.22  1.440060E-03
   1427.92  1.438415E-03
   1428.63  1.436773E-03
   1429.34  1.435132E-03
   1430.04  1.433493E-03
   1430.75  1.431857E-03
   1431.46  1.430222E-03
   1432.17  1.428588E-03
   1432.88  1.426956E-03
   1433.58  1.425327E-03
   1434.29  1.423699E-03
   1435.00  1.422074E-03
   1435.71  1.420449E-03
   1436.42  1.418826E-03
   1437.14  1.417206E-03
   1437.85  1.415588E-03
   1438.56  1.413971E-03
   1439.27  1.412356E-03
   1439.98  1.410742E-03
   1440.69  1.409131E-03
   1441.41  1.407521E-03
   1442.12  1.405914E-03
   1442.83  1.404308E-03
   1443.55  1.402704E-03
   1444.26  1.401102E-03
   1444.98  1.399501E-03
   1445.69  1.397902E-03
   1446.41  1.396305E-03
   1447.12  1.394709E-03
   1447.84  1.393115E-03
   1448.56  1.391523E-03
   1449.27  1.389930E-03
   1449.99  1.388326E-03
   1450.71  1.386723E-03
   1451.43  1.385123E-03
   1452.14  1.383524E-03
   1452.86  1.381926E-03
   1453.58  1.380331E-03
   1454.30  1.378737E-03
   1455.02  1.377146E-03
   1455.74  1.375556E-03
   1456.46  1.373968E-03
   1457.18  1.372382E-03
   1457.90  1.370797E-03
   1458.62  1.369215E-03
   1459.34  1.367634E-03
   1460.07  1.366055E-03
   1460.79  1.364478E-03
   1461.51  1.362902E-03
   1462.24  1.361329E-03
   1462.96  1.359757E-03
   1463.68  1.358187E-03
   1464.41  1.356619E-03
   1465.13  1.355052E-03
   1465.86  1.353487E-03
   1466.58  1.351924E-03
   1467.31  1.350363E-03
   1468.03  1.348803E-03
   1468.76  1.347246E-03
   1469.49  1.345690E-03
   1470.21  1.344136E-03
   1470.94  1.342583E-03
   1471.67  1.341033E-03
   1472.40  1.339484E-03
   1473.13  1.337923E-03
   1473.86  1.336360E-03
   1474.58  1.334799E-03
   1475.31  1.333239E-03
   1476.04  1.331681E-03
   1476.78  1.330125E-03
   1477.51  1.328571E-03
   1478.24  1.327018E-03
   1478.97  1.325467E-03
   1479.70  1.323918E-03
   1480.43  1.322371E-03
   1481.17  1.320825E-03
   1481.90  1.319281E-03
   1482.63  1.317740E-03
   1483.36  1.316200E-03
   1484.10  1.314661E-03
   1484.83  1.313125E-03
   1485.57  1.311590E-03
   1486.30  1.310057E-03
   1487.04  1.308525E-03
   1487.77  1.306996E-03
   1488.51  1.305468E-03
   1489.25  1.303942E-03
   1489.98  1.302418E-03
   1490.72  1.300895E-03
   1491.46  1.299374E-03
   1492.20  1.297855E-03
   1492.94  1.296338E-03
   1493.67  1.294823E-03
   1494.41  1.293308E-03
   1495.15  1.291795E-03
   1495.89  1.290285E-03
   1496.63  1.288770E-03
   1497.37  1.287242E-03
   1498.11  1.285716E-03
   1498.86  1.284192E-03
   1499.60  1.282670E-03
   1500.34  1.281149E-03
   1501.08  1.279631E-03
   1501.82  1.278114E-03
   1502.57  1.276598E-03
   1503.31  1.275085E-03
   1504.06  1.273573E-03
   1504.80  1.272063E-03
   1505.54  1.270555E-03
   1506.29  1.269049E-03
   1507.03  1.267544E-03
   1507.78  1.266041E-03
   1508.53  1.264540E-03
   1509.27  1.263041E-03
   1510.02  1.261543E-03
   1510.77  1.260047E-03
   1511.51  1.258552E-03
   1512.26  1.257060E-03
   1513.01  1.255570E-03
   1513.76  1.254081E-03
   1514.51  1.252594E-03
   1515.26  1.251108E-03
   1516.01  1.249624E-03
   1516.76  1.248142E-03
   1517.51  1.246662E-03
   1518.26  1.245181E-03
   1519.01  1.243704E-03
   1519.76  1.242227E-03
   1520.51  1.240752E-03
   1521.27  1.239257E-03
   1522.02  1.237761E-03
   1522.77  1.236266E-03
   1523.53  1.234773E-03
   1524.28  1.233282E-03
   1525.03  1.231793E-03
   1525.79  1.230305E-03
   1526.54  1.228819E-03
   1527.30  1.227335E-03
   1528.05  1.225853E-03
   1528.81  1.224373E-03
   1529.57  1.222894E-03
   1530.32  1.221417E-03
   1531.08  1.219942E-03
   1531.84  1.218468E-03
   1532.60  1.216996E-03
   1533.36  1.215526E-03
   1534.11  1.214058E-03
   1534.87  1.212591E-03
   1535.63  1.211126E-03
   1536.39  1.209663E-03
   1537.15  1.208202E-03
   1537.91  1.206742E-03
   1538.67  1.205284E-03
   1539.44  1.203828E-03
   1540.20  1.202373E-03
   1540.96  1.200920E-03
   1541.72  1.199469E-03
   1542.49  1.198020E-03
   1543.25  1.196571E-03
   1544.01  1.195126E-03
   1544.78  1.193681E-03
   1545.54  1.192225E-03
   1546.31  1.190754E-03
   1547.07  1.189286E-03
   1547.84  1.187819E-03
   1548.60  1.186354E-03
   1549.37  1.184890E-03
   1550.14  1.183430E-03
   1550.90  1.181969E-03
   1551.67  1.180511E-03
   1552.44  1.179055E-03
   1553.21  1.177600E-03
   1553.97  1.176148E-03
   1554.74  1.174697E-03
   1555.51  1.173247E-03
   1556.28  1.171800E-03
   1557.05  1.170354E-03
   1557.82  1.168910E-03
   1558.59  1.167468E-03
   1559.37  1.166027E-03
   1560.14  1.164588E-03
   1560.91  1.163151E-03
   1561.68  1.161716E-03
   1562.45  1.160282E-03
   1563.23  1.158850E-03
   1564.00  1.157420E-03
   1564.77  1.155991E-03
   1565.55  1.154565E-03
   1566.32  1.153139E-03
   1567.10  1.151716E-03
   1567.87  1.150294E-03
   1568.65  1.148874E-03
   1569.43  1.147456E-03
   1570.20  1.146038E-03
   1570.98  1.144589E-03
   1571.76  1.143141E-03
   1572.53  1.141695E-03
   1573.31  1.140251E-03
   1574.09  1.138809E-03
   1574.87  1.137368E-03
   1575.65  1.135929E-03
   1576.43  1.134492E-03
   1577.21  1.133057E-03
   1577.99  1.131624E-03
   1578.77  1.130192E-03
   1579.55  1.128762E-03
   1580.33  1.127334E-03
   1581.12  1.125908E-03
   1581.90  1.124483E-03
   1582.68  1.123060E-03
   1583.46  1.121639E-03
   1584.25  1.120220E-03
   1585.03  1.118802E-03
   1585.82  1.117386E-03
   1586.60  1.115972E-03
   1587.39  1.114559E-03
   1588.17  1.113149E-03
   1588.96  1.111740E-03
   1589.74  1.110332E-03
   1590.53  1.108926E-03
   1591.32  1.107523E-03
   1592.10  1.106121E-03
   1592.89  1.104721E-03
   1593.68  1.103321E-03
   1594.47  1.101924E-03
   1595.26  1.100529E-03
   1596.05  1.099111E-03
   1596.84  1.097678E-03
   1597.63  1.096246E-03
   1598.42  1.094816E-03
   1599.21  1.093388E-03
   1600.00  1.091962E-03






