 Zr Density=6.506 Thickness=0.298 microns
 Photon Energy (eV), Transmission
    50.000      0.24154E-06
    50.400      0.46858E-06
    50.800      0.87887E-06
    51.200      0.15969E-05
    51.600      0.28161E-05
    52.000      0.48280E-05
    52.400      0.80596E-05
    52.800      0.13121E-04
    53.200      0.20860E-04
    53.600      0.32431E-04
    54.000      0.49981E-04
    54.400      0.75475E-04
    54.800      0.11416E-03
    55.200      0.16931E-03
    55.600      0.24618E-03
    56.000      0.35134E-03
    56.400      0.49267E-03
    56.800      0.67946E-03
    57.200      0.92250E-03
    57.600      0.12340E-02
    58.000      0.16279E-02
    58.400      0.21191E-02
    58.800      0.27242E-02
    59.200      0.34610E-02
    59.600      0.43479E-02
    60.000      0.54043E-02
    60.400      0.66502E-02
    60.800      0.81058E-02
    61.200      0.97912E-02
    61.600      0.11726E-01
    62.000      0.13929E-01
    62.400      0.16420E-01
    62.800      0.19213E-01
    63.200      0.22327E-01
    63.600      0.25776E-01
    64.000      0.29570E-01
    64.400      0.33721E-01
    64.800      0.38238E-01
    65.200      0.43126E-01
    65.600      0.48391E-01
    66.000      0.54034E-01
    66.400      0.60054E-01
    66.800      0.66450E-01
    67.200      0.73219E-01
    67.600      0.80355E-01
    68.000      0.87850E-01
    68.400      0.95692E-01
    68.800      0.10387    
    69.200      0.11053    
    69.600      0.11670    
    70.000      0.12295    
    70.400      0.12903    
    70.800      0.13521    
    71.200      0.14151    
    71.600      0.14790    
    72.000      0.15440    
    72.400      0.16099    
    72.800      0.16766    
    73.200      0.17442    
    73.600      0.18125    
    74.000      0.18816    
    74.400      0.19512    
    74.800      0.20215    
    75.200      0.20923    
    75.600      0.21637    
    76.000      0.22354    
    76.400      0.23075    
    76.800      0.23641    
    77.200      0.24207    
    77.600      0.24758    
    78.000      0.25225    
    78.400      0.25691    
    78.800      0.26157    
    79.200      0.26623    
    79.600      0.27089    
    80.000      0.27554    
    80.400      0.28018    
    80.800      0.28482    
    81.200      0.28862    
    81.600      0.29117    
    82.000      0.29372    
    82.400      0.29623    
    82.800      0.29871    
    83.200      0.30119    
    83.600      0.30365    
    84.000      0.30611    
    84.400      0.30856    
    84.800      0.31099    
    85.200      0.31342    
    85.600      0.31584    
    86.000      0.31826    
    86.400      0.32066    
    86.800      0.32306    
    87.200      0.32544    
    87.600      0.32784    
    88.000      0.33023    
    88.400      0.33261    
    88.800      0.33498    
    89.200      0.33734    
    89.600      0.33969    
    90.000      0.34203    
    90.400      0.34437    
    90.800      0.34669    
    91.200      0.34901    
    91.600      0.35131    
    92.000      0.35361    
    92.400      0.35590    
    92.800      0.35817    
    93.200      0.36044    
    93.600      0.36270    
    94.000      0.36492    
    94.400      0.36701    
    94.800      0.36909    
    95.200      0.37116    
    95.600      0.37213    
    96.000      0.37266    
    96.400      0.37320    
    96.800      0.37373    
    97.200      0.37426    
    97.600      0.37479    
    98.000      0.37532    
    98.400      0.37584    
    98.800      0.37636    
    99.200      0.37688    
    99.600      0.37740    
    100.00      0.37792    
    100.40      0.37843    
    100.80      0.37894    
    101.20      0.37941    
    101.60      0.37974    
    102.00      0.38008    
    102.40      0.38041    
    102.80      0.38028    
    103.20      0.37966    
    103.60      0.37904    
    104.00      0.37842    
    104.40      0.37781    
    104.80      0.37720    
    105.20      0.37659    
    105.60      0.37598    
    106.00      0.37537    
    106.40      0.37477    
    106.80      0.37417    
    107.20      0.37357    
    107.60      0.37297    
    108.00      0.37238    
    108.40      0.37179    
    108.80      0.37120    
    109.20      0.37061    
    109.60      0.37003    
    110.00      0.36944    
    110.40      0.36886    
    110.80      0.36835    
    111.20      0.36785    
    111.60      0.36736    
    112.00      0.36686    
    112.40      0.36660    
    112.80      0.36642    
    113.20      0.36625    
    113.60      0.36607    
    114.00      0.36589    
    114.40      0.36572    
    114.80      0.36554    
    115.20      0.36537    
    115.60      0.36520    
    116.00      0.36502    
    116.40      0.36485    
    116.80      0.36468    
    117.20      0.36454    
    117.60      0.36479    
    118.00      0.36505    
    118.40      0.36531    
    118.80      0.36557    
    119.20      0.36589    
    119.60      0.36624    
    120.00      0.36660    
    120.40      0.36695    
    120.80      0.36729    
    121.20      0.36764    
    121.60      0.36799    
    122.00      0.36834    
    122.40      0.36868    
    122.80      0.36903    
    123.20      0.36937    
    123.60      0.36971    
    124.00      0.37005    
    124.40      0.37039    
    124.80      0.37073    
    125.20      0.37106    
    125.60      0.37140    
    126.00      0.37173    
    126.40      0.37207    
    126.80      0.37240    
    127.20      0.37273    
    127.60      0.37306    
    128.00      0.37339    
    128.40      0.37372    
    128.80      0.37405    
    129.20      0.37438    
    129.60      0.37470    
    130.00      0.37503    
    130.40      0.37535    
    130.80      0.37567    
    131.20      0.37599    
    131.60      0.37631    
    132.00      0.37663    
    132.40      0.37693    
    132.80      0.37724    
    133.20      0.37754    
    133.60      0.37784    
    134.00      0.37812    
    134.40      0.37839    
    134.80      0.37864    
    135.20      0.37890    
    135.60      0.37916    
    136.00      0.37942    
    136.40      0.37968    
    136.80      0.37993    
    137.20      0.38019    
    137.60      0.38044    
    138.00      0.38070    
    138.40      0.38095    
    138.80      0.38120    
    139.20      0.38145    
    139.60      0.38170    
    140.00      0.38195    
    140.40      0.38220    
    140.80      0.38245    
    141.20      0.38270    
    141.60      0.38295    
    142.00      0.38319    
    142.40      0.38344    
    142.80      0.38368    
    143.20      0.38393    
    143.60      0.38417    
    144.00      0.38442    
    144.40      0.38466    
    144.80      0.38490    
    145.20      0.38514    
    145.60      0.38538    
    146.00      0.38562    
    146.40      0.38586    
    146.80      0.38610    
    147.20      0.38634    
    147.60      0.38657    
    148.00      0.38681    
    148.40      0.38705    
    148.80      0.38728    
    149.20      0.38752    
    149.60      0.38775    
    150.00      0.38798    
    150.40      0.38822    
    150.80      0.38845    
    151.20      0.38868    
    151.60      0.38891    
    152.00      0.38914    
    152.40      0.38937    
    152.80      0.38960    
    153.20      0.38991    
    153.60      0.39021    
    154.00      0.39052    
    154.40      0.39083    
    154.80      0.39113    
    155.20      0.39146    
    155.60      0.39182    
    156.00      0.39219    
    156.40      0.39255    
    156.80      0.39292    
    157.20      0.39328    
    157.60      0.39364    
    158.00      0.39401    
    158.40      0.39437    
    158.80      0.39473    
    159.20      0.39508    
    159.60      0.39544    
    160.00      0.39580    
    160.40      0.39615    
    160.80      0.39651    
    161.20      0.39686    
    161.60      0.39722    
    162.00      0.39757    
    162.40      0.39792    
    162.80      0.39827    
    163.20      0.39862    
    163.60      0.39897    
    164.00      0.39932    
    164.40      0.39966    
    164.80      0.40001    
    165.20      0.40036    
    165.60      0.40070    
    166.00      0.40104    
    166.40      0.40139    
    166.80      0.40173    
    167.20      0.40207    
    167.60      0.40241    
    168.00      0.40275    
    168.40      0.40309    
    168.80      0.40343    
    169.20      0.40376    
    169.60      0.40410    
    170.00      0.40443    
    170.40      0.40477    
    170.80      0.40510    
    171.20      0.40543    
    171.60      0.40577    
    172.00      0.40610    
    172.40      0.40643    
    172.80      0.40676    
    173.20      0.40709    
    173.60      0.40742    
    174.00      0.40774    
    174.40      0.40807    
    174.80      0.40840    
    175.20      0.40872    
    175.60      0.40904    
    176.00      0.40937    
    176.40      0.40663    
    176.80      0.39554    
    177.20      0.38444    
    177.60      0.37335    
    178.00      0.36229    
    178.40      0.35125    
    178.80      0.34092    
    179.20      0.34094    
    179.60      0.34097    
    180.00      0.34100    
    180.40      0.34103    
    180.80      0.34105    
    181.20      0.34108    
    181.60      0.34111    
    182.00      0.34114    
    182.40      0.34116    
    182.80      0.34119    
    183.20      0.34122    
    183.60      0.34125    
    184.00      0.34127    
    184.40      0.33751    
    184.80      0.33197    
    185.20      0.32646    
    185.60      0.32097    
    186.00      0.31550    
    186.40      0.31006    
    186.80      0.30464    
    187.20      0.29854    
    187.60      0.29235    
    188.00      0.28620    
    188.40      0.28008    
    188.80      0.27401    
    189.20      0.26798    
    189.60      0.26199    
    190.00      0.25669    
    190.40      0.25149    
    190.80      0.24634    
    191.20      0.24123    
    191.60      0.23616    
    192.00      0.23114    
    192.40      0.22616    
    192.80      0.22288    
    193.20      0.21991    
    193.60      0.21695    
    194.00      0.21401    
    194.40      0.21109    
    194.80      0.20820    
    195.20      0.20532    
    195.60      0.20246    
    196.00      0.19963    
    196.40      0.19681    
    196.80      0.19402    
    197.20      0.19125    
    197.60      0.18849    
    198.00      0.18576    
    198.40      0.18077    
    198.80      0.17312    
    199.20      0.16563    
    199.60      0.15830    
    200.00      0.15113    
    200.40      0.14414    
    200.80      0.13732    
    201.20      0.13063    
    201.60      0.12363    
    202.00      0.11684    
    202.40      0.11028    
    202.80      0.10393    
    203.20      0.97799E-01
    203.60      0.91895E-01
    204.00      0.86214E-01
    204.40      0.80759E-01
    204.80      0.75528E-01
    205.20      0.70520E-01
    205.60      0.65733E-01
    206.00      0.61166E-01
    206.40      0.56816E-01
    206.80      0.52680E-01
    207.20      0.48803E-01
    207.60      0.46358E-01
    208.00      0.44002E-01
    208.40      0.41733E-01
    208.80      0.39550E-01
    209.20      0.37451E-01
    209.60      0.35435E-01
    210.00      0.33499E-01
    210.40      0.31873E-01
    210.80      0.30742E-01
    211.20      0.29642E-01
    211.60      0.28572E-01
    212.00      0.27533E-01
    212.40      0.26523E-01
    212.80      0.25541E-01
    213.20      0.24588E-01
    213.60      0.23967E-01
    214.00      0.23625E-01
    214.40      0.23287E-01
    214.80      0.22952E-01
    215.20      0.22623E-01
    215.60      0.22297E-01
    216.00      0.21975E-01
    216.40      0.21658E-01
    216.80      0.21344E-01
    217.20      0.21035E-01
    217.60      0.20729E-01
    218.00      0.20427E-01
    218.40      0.20129E-01
    218.80      0.19835E-01
    219.20      0.19544E-01
    219.60      0.19257E-01
    220.00      0.18974E-01
    220.40      0.18695E-01
    220.80      0.18419E-01
    221.20      0.18146E-01
    221.60      0.17877E-01
    222.00      0.17612E-01
    222.40      0.17350E-01
    222.80      0.17091E-01
    223.20      0.16809E-01
    223.60      0.16492E-01
    224.00      0.16179E-01
    224.40      0.15872E-01
    224.80      0.15570E-01
    225.20      0.15272E-01
    225.60      0.14979E-01
    226.00      0.14692E-01
    226.40      0.14404E-01
    226.80      0.14085E-01
    227.20      0.13771E-01
    227.60      0.13464E-01
    228.00      0.13162E-01
    228.40      0.12867E-01
    228.80      0.12576E-01
    229.20      0.12292E-01
    229.60      0.12013E-01
    230.00      0.11739E-01
    230.40      0.11471E-01
    230.80      0.11207E-01
    231.20      0.10950E-01
    231.60      0.10697E-01
    232.00      0.10449E-01
    232.40      0.10206E-01
    232.80      0.99679E-02
    233.20      0.97278E-02
    233.60      0.94614E-02
    234.00      0.92012E-02
    234.40      0.89470E-02
    234.80      0.86989E-02
    235.20      0.84566E-02
    235.60      0.82202E-02
    236.00      0.79893E-02
    236.40      0.77640E-02
    236.80      0.75384E-02
    237.20      0.73134E-02
    237.60      0.70940E-02
    238.00      0.68803E-02
    238.40      0.66720E-02
    238.80      0.64692E-02
    239.20      0.62717E-02
    239.60      0.60794E-02
    240.00      0.58922E-02
    240.40      0.57832E-02
    240.80      0.57035E-02
    241.20      0.56248E-02
    241.60      0.55472E-02
    242.00      0.54705E-02
    242.40      0.53949E-02
    242.80      0.53202E-02
    243.20      0.52464E-02
    243.60      0.51736E-02
    244.00      0.51496E-02
    244.40      0.51371E-02
    244.80      0.51246E-02
    245.20      0.51122E-02
    245.60      0.50999E-02
    246.00      0.50875E-02
    246.40      0.50752E-02
    246.80      0.50630E-02
    247.20      0.50508E-02
    247.60      0.50386E-02
    248.00      0.50265E-02
    248.40      0.50144E-02
    248.80      0.50024E-02
    249.20      0.49904E-02
    249.60      0.49784E-02
    250.00      0.49665E-02
    250.40      0.49546E-02
    250.80      0.49428E-02
    251.20      0.49243E-02
    251.60      0.49009E-02
    252.00      0.48776E-02
    252.40      0.48545E-02
    252.80      0.48315E-02
    253.20      0.48086E-02
    253.60      0.47858E-02
    254.00      0.47631E-02
    254.40      0.47406E-02
    254.80      0.47178E-02
    255.20      0.46940E-02
    255.60      0.46703E-02
    256.00      0.46468E-02
    256.40      0.46233E-02
    256.80      0.46000E-02
    257.20      0.45769E-02
    257.60      0.45539E-02
    258.00      0.45309E-02
    258.40      0.45082E-02
    258.80      0.44855E-02
    259.20      0.44630E-02
    259.60      0.44406E-02
    260.00      0.44183E-02
    260.40      0.43962E-02
    260.80      0.43742E-02
    261.20      0.43523E-02
    261.60      0.43305E-02
    262.00      0.43089E-02
    262.40      0.42876E-02
    262.80      0.42673E-02
    263.20      0.42472E-02
    263.60      0.42272E-02
    264.00      0.42072E-02
    264.40      0.41874E-02
    264.80      0.41677E-02
    265.20      0.41481E-02
    265.60      0.41286E-02
    266.00      0.41092E-02
    266.40      0.41002E-02
    266.80      0.41043E-02
    267.20      0.41083E-02
    267.60      0.41124E-02
    268.00      0.41164E-02
    268.40      0.41205E-02
    268.80      0.41245E-02
    269.20      0.41286E-02
    269.60      0.41326E-02
    270.00      0.41367E-02
    270.40      0.41407E-02
    270.80      0.41448E-02
    271.20      0.41488E-02
    271.60      0.41529E-02
    272.00      0.41569E-02
    272.40      0.41610E-02
    272.80      0.41650E-02
    273.20      0.41690E-02
    273.60      0.41731E-02
    274.00      0.41771E-02
    274.40      0.41811E-02
    274.80      0.41852E-02
    275.20      0.41892E-02
    275.60      0.41932E-02
    276.00      0.41972E-02
    276.40      0.42012E-02
    276.80      0.42052E-02
    277.20      0.42092E-02
    277.60      0.42132E-02
    278.00      0.42172E-02
    278.40      0.42261E-02
    278.80      0.42447E-02
    279.20      0.42634E-02
    279.60      0.42821E-02
    280.00      0.43009E-02
    280.40      0.43197E-02
    280.80      0.43385E-02
    281.20      0.43574E-02
    281.60      0.43763E-02
    282.00      0.43953E-02
    282.40      0.44143E-02
    282.80      0.44360E-02
    283.20      0.44578E-02
    283.60      0.44796E-02
    284.00      0.45014E-02
    284.40      0.45234E-02
    284.80      0.45453E-02
    285.20      0.45674E-02
    285.60      0.45895E-02
    286.00      0.46116E-02
    286.40      0.46338E-02
    286.80      0.46561E-02
    287.20      0.46784E-02
    287.60      0.47008E-02
    288.00      0.47232E-02
    288.40      0.47457E-02
    288.80      0.47682E-02
    289.20      0.47908E-02
    289.60      0.48135E-02
    290.00      0.48362E-02
    290.40      0.48590E-02
    290.80      0.48818E-02
    291.20      0.49034E-02
    291.60      0.49248E-02
    292.00      0.49463E-02
    292.40      0.49679E-02
    292.80      0.49895E-02
    293.20      0.50111E-02
    293.60      0.50328E-02
    294.00      0.50545E-02
    294.40      0.50762E-02
    294.80      0.50981E-02
    295.20      0.51179E-02
    295.60      0.51078E-02
    296.00      0.50978E-02
    296.40      0.50877E-02
    296.80      0.50777E-02
    297.20      0.50677E-02
    297.60      0.50578E-02
    298.00      0.50479E-02
    298.40      0.50380E-02
    298.80      0.50281E-02
    299.20      0.50183E-02
    299.60      0.50085E-02
    300.00      0.49987E-02
    300.40      0.49889E-02
    300.80      0.49792E-02
    301.20      0.49695E-02
    301.60      0.49598E-02
    302.00      0.49501E-02
    302.40      0.49405E-02
    302.80      0.49309E-02
    303.20      0.49213E-02
    303.60      0.49118E-02
    304.00      0.49023E-02
    304.40      0.48928E-02
    304.80      0.48834E-02
    305.20      0.48739E-02
    305.60      0.48646E-02
    306.00      0.48552E-02
    306.40      0.48458E-02
    306.80      0.48366E-02
    307.20      0.48273E-02
    307.60      0.48180E-02
    308.00      0.48088E-02
    308.40      0.47996E-02
    308.80      0.48042E-02
    309.20      0.48153E-02
    309.60      0.48265E-02
    310.00      0.48377E-02
    310.40      0.48488E-02
    310.80      0.48600E-02
    311.20      0.48712E-02
    311.60      0.48824E-02
    312.00      0.48936E-02
    312.40      0.49048E-02
    312.80      0.49161E-02
    313.20      0.49283E-02
    313.60      0.49440E-02
    314.00      0.49598E-02
    314.40      0.49757E-02
    314.80      0.49915E-02
    315.20      0.50074E-02
    315.60      0.50232E-02
    316.00      0.50391E-02
    316.40      0.50550E-02
    316.80      0.50710E-02
    317.20      0.50869E-02
    317.60      0.51029E-02
    318.00      0.51189E-02
    318.40      0.51350E-02
    318.80      0.51510E-02
    319.20      0.51671E-02
    319.60      0.51832E-02
    320.00      0.51993E-02
    320.40      0.52154E-02
    320.80      0.52316E-02
    321.20      0.52477E-02
    321.60      0.52639E-02
    322.00      0.52801E-02
    322.40      0.52964E-02
    322.80      0.52740E-02
    323.20      0.52411E-02
    323.60      0.52085E-02
    324.00      0.51761E-02
    324.40      0.51439E-02
    324.80      0.51119E-02
    325.20      0.50801E-02
    325.60      0.50486E-02
    326.00      0.50172E-02
    326.40      0.49860E-02
    326.80      0.49550E-02
    327.20      0.49241E-02
    327.60      0.48814E-02
    328.00      0.48361E-02
    328.40      0.47912E-02
    328.80      0.47467E-02
    329.20      0.47026E-02
    329.60      0.46589E-02
    330.00      0.46155E-02
    330.40      0.45726E-02
    330.80      0.45300E-02
    331.20      0.44878E-02
    331.60      0.44460E-02
    332.00      0.44045E-02
    332.40      0.43634E-02
    332.80      0.43227E-02
    333.20      0.42823E-02
    333.60      0.42423E-02
    334.00      0.42027E-02
    334.40      0.41634E-02
    334.80      0.41244E-02
    335.20      0.40858E-02
    335.60      0.40475E-02
    336.00      0.40096E-02
    336.40      0.39720E-02
    336.80      0.39347E-02
    337.20      0.38978E-02
    337.60      0.38612E-02
    338.00      0.38250E-02
    338.40      0.37890E-02
    338.80      0.37534E-02
    339.20      0.37180E-02
    339.60      0.36830E-02
    340.00      0.36483E-02
    340.40      0.36140E-02
    340.80      0.35799E-02
    341.20      0.35461E-02
    341.60      0.35126E-02
    342.00      0.34795E-02
    342.40      0.34889E-02
    342.80      0.35093E-02
    343.20      0.35298E-02
    343.60      0.35504E-02
    344.00      0.35710E-02
    344.40      0.35917E-02
    344.80      0.36125E-02
    345.20      0.36334E-02
    345.60      0.36544E-02
    346.00      0.36754E-02
    346.40      0.36965E-02
    346.80      0.37176E-02
    347.20      0.37402E-02
    347.60      0.37764E-02
    348.00      0.38129E-02
    348.40      0.38496E-02
    348.80      0.38866E-02
    349.20      0.39239E-02
    349.60      0.39613E-02
    350.00      0.39991E-02
    350.40      0.40370E-02
    350.80      0.40753E-02
    351.20      0.41138E-02
    351.60      0.41525E-02
    352.00      0.41915E-02
    352.40      0.42307E-02
    352.80      0.42702E-02
    353.20      0.43100E-02
    353.60      0.43500E-02
    354.00      0.43902E-02
    354.40      0.44307E-02
    354.80      0.44715E-02
    355.20      0.45126E-02
    355.60      0.45538E-02
    356.00      0.45954E-02
    356.40      0.46372E-02
    356.80      0.46793E-02
    357.20      0.47216E-02
    357.60      0.47643E-02
    358.00      0.48071E-02
    358.40      0.48503E-02
    358.80      0.48937E-02
    359.20      0.49373E-02
    359.60      0.49813E-02
    360.00      0.50255E-02
    360.40      0.50699E-02
    360.80      0.51147E-02
    361.20      0.51597E-02
    361.60      0.52049E-02
    362.00      0.52505E-02
    362.40      0.52963E-02
    362.80      0.53424E-02
    363.20      0.53888E-02
    363.60      0.54354E-02
    364.00      0.54823E-02
    364.40      0.55295E-02
    364.80      0.55769E-02
    365.20      0.56247E-02
    365.60      0.56727E-02
    366.00      0.57210E-02
    366.40      0.57695E-02
    366.80      0.58184E-02
    367.20      0.58675E-02
    367.60      0.59169E-02
    368.00      0.59666E-02
    368.40      0.60165E-02
    368.80      0.60668E-02
    369.20      0.61173E-02
    369.60      0.61681E-02
    370.00      0.62192E-02
    370.40      0.62706E-02
    370.80      0.63222E-02
    371.20      0.63741E-02
    371.60      0.64264E-02
    372.00      0.64789E-02
    372.40      0.65317E-02
    372.80      0.65847E-02
    373.20      0.66381E-02
    373.60      0.66918E-02
    374.00      0.67320E-02
    374.40      0.67657E-02
    374.80      0.67995E-02
    375.20      0.68333E-02
    375.60      0.68673E-02
    376.00      0.69013E-02
    376.40      0.69355E-02
    376.80      0.69698E-02
    377.20      0.70041E-02
    377.60      0.70386E-02
    378.00      0.70731E-02
    378.40      0.71078E-02
    378.80      0.71425E-02
    379.20      0.71773E-02
    379.60      0.72059E-02
    380.00      0.72329E-02
    380.40      0.72599E-02
    380.80      0.72869E-02
    381.20      0.73140E-02
    381.60      0.73411E-02
    382.00      0.73683E-02
    382.40      0.73956E-02
    382.80      0.74229E-02
    383.20      0.74502E-02
    383.60      0.74776E-02
    384.00      0.75051E-02
    384.40      0.75326E-02
    384.80      0.75601E-02
    385.20      0.75878E-02
    385.60      0.76154E-02
    386.00      0.76431E-02
    386.40      0.76709E-02
    386.80      0.76987E-02
    387.20      0.77266E-02
    387.60      0.77545E-02
    388.00      0.77825E-02
    388.40      0.78105E-02
    388.80      0.78386E-02
    389.20      0.78667E-02
    389.60      0.78949E-02
    390.00      0.79231E-02
    390.40      0.79514E-02
    390.80      0.79797E-02
    391.20      0.80081E-02
    391.60      0.80365E-02
    392.00      0.80650E-02
    392.40      0.80935E-02
    392.80      0.81221E-02
    393.20      0.81508E-02
    393.60      0.81794E-02
    394.00      0.82082E-02
    394.40      0.82370E-02
    394.80      0.82658E-02
    395.20      0.82947E-02
    395.60      0.83236E-02
    396.00      0.83526E-02
    396.40      0.83816E-02
    396.80      0.84107E-02
    397.20      0.84399E-02
    397.60      0.84691E-02
    398.00      0.84983E-02
    398.40      0.85276E-02
    398.80      0.85569E-02
    399.20      0.85863E-02
    399.60      0.86158E-02
    400.00      0.86453E-02
    400.40      0.86748E-02
    400.80      0.87044E-02
    401.20      0.87341E-02
    401.60      0.87637E-02
    402.00      0.87935E-02
    402.40      0.88248E-02
    402.80      0.88640E-02
    403.20      0.89032E-02
    403.60      0.89426E-02
    404.00      0.89820E-02
    404.40      0.90216E-02
    404.80      0.90612E-02
    405.20      0.91010E-02
    405.60      0.91408E-02
    406.00      0.91807E-02
    406.40      0.92208E-02
    406.80      0.92609E-02
    407.20      0.93011E-02
    407.60      0.93414E-02
    408.00      0.93819E-02
    408.40      0.94232E-02
    408.80      0.94677E-02
    409.20      0.95124E-02
    409.60      0.95571E-02
    410.00      0.96020E-02
    410.40      0.96470E-02
    410.80      0.96921E-02
    411.20      0.97373E-02
    411.60      0.97827E-02
    412.00      0.98282E-02
    412.40      0.98738E-02
    412.80      0.99195E-02
    413.20      0.99654E-02
    413.60      0.10011E-01
    414.00      0.10057E-01
    414.40      0.10104E-01
    414.80      0.10150E-01
    415.20      0.10196E-01
    415.60      0.10243E-01
    416.00      0.10290E-01
    416.40      0.10336E-01
    416.80      0.10383E-01
    417.20      0.10430E-01
    417.60      0.10477E-01
    418.00      0.10525E-01
    418.40      0.10572E-01
    418.80      0.10620E-01
    419.20      0.10667E-01
    419.60      0.10715E-01
    420.00      0.10763E-01
    420.40      0.10811E-01
    420.80      0.10859E-01
    421.20      0.10907E-01
    421.60      0.10956E-01
    422.00      0.11004E-01
    422.40      0.11053E-01
    422.80      0.11102E-01
    423.20      0.11151E-01
    423.60      0.11200E-01
    424.00      0.11249E-01
    424.40      0.11298E-01
    424.80      0.11347E-01
    425.20      0.11397E-01
    425.60      0.11446E-01
    426.00      0.11496E-01
    426.40      0.11546E-01
    426.80      0.11596E-01
    427.20      0.11646E-01
    427.60      0.11696E-01
    428.00      0.11746E-01
    428.40      0.11797E-01
    428.80      0.11847E-01
    429.20      0.11898E-01
    429.60      0.11949E-01
    430.00      0.12000E-01
    430.40      0.12051E-01
    430.80      0.12102E-01
    431.20      0.12153E-01
    431.60      0.12204E-01
    432.00      0.12256E-01
    432.40      0.12308E-01
    432.80      0.12359E-01
    433.20      0.12411E-01
    433.60      0.12463E-01
    434.00      0.12515E-01
    434.40      0.12567E-01
    434.80      0.12620E-01
    435.20      0.12672E-01
    435.60      0.12725E-01
    436.00      0.12778E-01
    436.40      0.12830E-01
    436.80      0.12883E-01
    437.20      0.12936E-01
    437.60      0.12989E-01
    438.00      0.13043E-01
    438.40      0.13096E-01
    438.80      0.13150E-01
    439.20      0.13203E-01
    439.60      0.13259E-01
    440.00      0.13335E-01
    440.40      0.13411E-01
    440.80      0.13488E-01
    441.20      0.13564E-01
    441.60      0.13641E-01
    442.00      0.13718E-01
    442.40      0.13795E-01
    442.80      0.13873E-01
    443.20      0.13951E-01
    443.60      0.14029E-01
    444.00      0.14107E-01
    444.40      0.14186E-01
    444.80      0.14265E-01
    445.20      0.14344E-01
    445.60      0.14424E-01
    446.00      0.14503E-01
    446.40      0.14589E-01
    446.80      0.14677E-01
    447.20      0.14766E-01
    447.60      0.14854E-01
    448.00      0.14943E-01
    448.40      0.15033E-01
    448.80      0.15122E-01
    449.20      0.15212E-01
    449.60      0.15303E-01
    450.00      0.15393E-01
    450.40      0.15484E-01
    450.80      0.15575E-01
    451.20      0.15667E-01
    451.60      0.15759E-01
    452.00      0.15851E-01
    452.40      0.15944E-01
    452.80      0.16037E-01
    453.20      0.16130E-01
    453.60      0.16224E-01
    454.00      0.16317E-01
    454.40      0.16412E-01
    454.80      0.16506E-01
    455.20      0.16601E-01
    455.60      0.16696E-01
    456.00      0.16792E-01
    456.40      0.16888E-01
    456.80      0.16984E-01
    457.20      0.17081E-01
    457.60      0.17177E-01
    458.00      0.17275E-01
    458.40      0.17372E-01
    458.80      0.17470E-01
    459.20      0.17568E-01
    459.60      0.17667E-01
    460.00      0.17765E-01
    460.40      0.17865E-01
    460.80      0.17964E-01
    461.20      0.18064E-01
    461.60      0.18164E-01
    462.00      0.18264E-01
    462.40      0.18365E-01
    462.80      0.18466E-01
    463.20      0.18568E-01
    463.60      0.18669E-01
    464.00      0.18772E-01
    464.40      0.18874E-01
    464.80      0.18977E-01
    465.20      0.19080E-01
    465.60      0.19183E-01
    466.00      0.19287E-01
    466.40      0.19390E-01
    466.80      0.19493E-01
    467.20      0.19596E-01
    467.60      0.19699E-01
    468.00      0.19802E-01
    468.40      0.19906E-01
    468.80      0.20010E-01
    469.20      0.20114E-01
    469.60      0.20219E-01
    470.00      0.20324E-01
    470.40      0.20429E-01
    470.80      0.20534E-01
    471.20      0.20640E-01
    471.60      0.20747E-01
    472.00      0.20853E-01
    472.40      0.20960E-01
    472.80      0.21067E-01
    473.20      0.21174E-01
    473.60      0.21278E-01
    474.00      0.21381E-01
    474.40      0.21485E-01
    474.80      0.21589E-01
    475.20      0.21693E-01
    475.60      0.21797E-01
    476.00      0.21902E-01
    476.40      0.22007E-01
    476.80      0.22113E-01
    477.20      0.22218E-01
    477.60      0.22324E-01
    478.00      0.22431E-01
    478.40      0.22537E-01
    478.80      0.22644E-01
    479.20      0.22751E-01
    479.60      0.22858E-01
    480.00      0.22966E-01
    480.40      0.23074E-01
    480.80      0.23182E-01
    481.20      0.23291E-01
    481.60      0.23400E-01
    482.00      0.23509E-01
    482.40      0.23618E-01
    482.80      0.23728E-01
    483.20      0.23838E-01
    483.60      0.23948E-01
    484.00      0.24058E-01
    484.40      0.24169E-01
    484.80      0.24280E-01
    485.20      0.24391E-01
    485.60      0.24503E-01
    486.00      0.24615E-01
    486.40      0.24727E-01
    486.80      0.24839E-01
    487.20      0.24952E-01
    487.60      0.25065E-01
    488.00      0.25178E-01
    488.40      0.25292E-01
    488.80      0.25406E-01
    489.20      0.25520E-01
    489.60      0.25634E-01
    490.00      0.25749E-01
    490.40      0.25864E-01
    490.80      0.25979E-01
    491.20      0.26095E-01
    491.60      0.26210E-01
    492.00      0.26326E-01
    492.40      0.26443E-01
    492.80      0.26559E-01
    493.20      0.26676E-01
    493.60      0.26793E-01
    494.00      0.26911E-01
    494.40      0.27028E-01
    494.80      0.27146E-01
    495.20      0.27265E-01
    495.60      0.27383E-01
    496.00      0.27502E-01
    496.40      0.27621E-01
    496.80      0.27741E-01
    497.20      0.27860E-01
    497.60      0.27980E-01
    498.00      0.28100E-01
    498.40      0.28221E-01
    498.80      0.28342E-01
    499.20      0.28463E-01
    499.60      0.28584E-01
    500.00      0.28706E-01
    500.40      0.28827E-01
    500.80      0.28950E-01
    501.20      0.29072E-01
    501.60      0.29195E-01
    502.00      0.29318E-01
    502.40      0.29441E-01
    502.80      0.29564E-01
    503.20      0.29688E-01
    503.60      0.29812E-01
    504.00      0.29936E-01
    504.40      0.30061E-01
    504.80      0.30185E-01
    505.20      0.30310E-01
    505.60      0.30436E-01
    506.00      0.30561E-01
    506.40      0.30687E-01
    506.80      0.30813E-01
    507.20      0.30940E-01
    507.60      0.31067E-01
    508.00      0.31193E-01
    508.40      0.31321E-01
    508.80      0.31448E-01
    509.20      0.31576E-01
    509.60      0.31704E-01
    510.00      0.31832E-01
    510.40      0.31961E-01
    510.80      0.32090E-01
    511.20      0.32219E-01
    511.60      0.32348E-01
    512.00      0.32478E-01
    512.40      0.32608E-01
    512.80      0.32738E-01
    513.20      0.32869E-01
    513.60      0.32999E-01
    514.00      0.33130E-01
    514.40      0.33262E-01
    514.80      0.33393E-01
    515.20      0.33525E-01
    515.60      0.33657E-01
    516.00      0.33789E-01
    516.40      0.33922E-01
    516.80      0.34055E-01
    517.20      0.34188E-01
    517.60      0.34321E-01
    518.00      0.34455E-01
    518.40      0.34589E-01
    518.80      0.34723E-01
    519.20      0.34857E-01
    519.60      0.34992E-01
    520.00      0.35127E-01
    520.40      0.35262E-01
    520.80      0.35398E-01
    521.20      0.35533E-01
    521.60      0.35669E-01
    522.00      0.35806E-01
    522.40      0.35942E-01
    522.80      0.36079E-01
    523.20      0.36216E-01
    523.60      0.36353E-01
    524.00      0.36491E-01
    524.40      0.36628E-01
    524.80      0.36766E-01
    525.20      0.36905E-01
    525.60      0.37043E-01
    526.00      0.37182E-01
    526.40      0.37321E-01
    526.80      0.37460E-01
    527.20      0.37600E-01
    527.60      0.37740E-01
    528.00      0.37880E-01
    528.40      0.38020E-01
    528.80      0.38161E-01
    529.20      0.38302E-01
    529.60      0.38443E-01
    530.00      0.38584E-01
    530.40      0.38726E-01
    530.80      0.38867E-01
    531.20      0.39010E-01
    531.60      0.39152E-01
    532.00      0.39294E-01
    532.40      0.39437E-01
    532.80      0.39586E-01
    533.20      0.39735E-01
    533.60      0.39884E-01
    534.00      0.40034E-01
    534.40      0.40184E-01
    534.80      0.40335E-01
    535.20      0.40485E-01
    535.60      0.40636E-01
    536.00      0.40787E-01
    536.40      0.40939E-01
    536.80      0.41091E-01
    537.20      0.41243E-01
    537.60      0.41395E-01
    538.00      0.41547E-01
    538.40      0.41700E-01
    538.80      0.41853E-01
    539.20      0.42007E-01
    539.60      0.42160E-01
    540.00      0.42314E-01
    540.40      0.42473E-01
    540.80      0.42673E-01
    541.20      0.42875E-01
    541.60      0.43077E-01
    542.00      0.43279E-01
    542.40      0.43482E-01
    542.80      0.43685E-01
    543.20      0.43889E-01
    543.60      0.44093E-01
    544.00      0.44298E-01
    544.40      0.44504E-01
    544.80      0.44709E-01
    545.20      0.44916E-01
    545.60      0.45122E-01
    546.00      0.45330E-01
    546.40      0.45537E-01
    546.80      0.45746E-01
    547.20      0.45955E-01
    547.60      0.46164E-01
    548.00      0.46374E-01
    548.40      0.46584E-01
    548.80      0.46794E-01
    549.20      0.47006E-01
    549.60      0.47217E-01
    550.00      0.47430E-01
    550.40      0.47642E-01
    550.80      0.47855E-01
    551.20      0.48069E-01
    551.60      0.48283E-01
    552.00      0.48498E-01
    552.40      0.48713E-01
    552.80      0.48928E-01
    553.20      0.49144E-01
    553.60      0.49361E-01
    554.00      0.49578E-01
    554.40      0.49795E-01
    554.80      0.50013E-01
    555.20      0.50232E-01
    555.60      0.50451E-01
    556.00      0.50670E-01
    556.40      0.50890E-01
    556.80      0.51110E-01
    557.20      0.51331E-01
    557.60      0.51552E-01
    558.00      0.51774E-01
    558.40      0.51996E-01
    558.80      0.52219E-01
    559.20      0.52442E-01
    559.60      0.52666E-01
    560.00      0.52890E-01
    560.40      0.53114E-01
    560.80      0.53339E-01
    561.20      0.53565E-01
    561.60      0.53791E-01
    562.00      0.54017E-01
    562.40      0.54244E-01
    562.80      0.54472E-01
    563.20      0.54699E-01
    563.60      0.54928E-01
    564.00      0.55156E-01
    564.40      0.55386E-01
    564.80      0.55615E-01
    565.20      0.55845E-01
    565.60      0.56076E-01
    566.00      0.56307E-01
    566.40      0.56538E-01
    566.80      0.56770E-01
    567.20      0.57003E-01
    567.60      0.57236E-01
    568.00      0.57469E-01
    568.40      0.57703E-01
    568.80      0.57937E-01
    569.20      0.58172E-01
    569.60      0.58407E-01
    570.00      0.58642E-01
    570.40      0.58878E-01
    570.80      0.59114E-01
    571.20      0.59351E-01
    571.60      0.59589E-01
    572.00      0.59827E-01
    572.40      0.60065E-01
    572.80      0.60303E-01
    573.20      0.60543E-01
    573.60      0.60782E-01
    574.00      0.61022E-01
    574.40      0.61262E-01
    574.80      0.61503E-01
    575.20      0.61745E-01
    575.60      0.61986E-01
    576.00      0.62229E-01
    576.40      0.62471E-01
    576.80      0.62714E-01
    577.20      0.62958E-01
    577.60      0.63202E-01
    578.00      0.63446E-01
    578.40      0.63691E-01
    578.80      0.63936E-01
    579.20      0.64182E-01
    579.60      0.64428E-01
    580.00      0.64674E-01
    580.40      0.64921E-01
    580.80      0.65169E-01
    581.20      0.65417E-01
    581.60      0.65665E-01
    582.00      0.65913E-01
    582.40      0.66162E-01
    582.80      0.66412E-01
    583.20      0.66662E-01
    583.60      0.66912E-01
    584.00      0.67163E-01
    584.40      0.67414E-01
    584.80      0.67665E-01
    585.20      0.67917E-01
    585.60      0.68170E-01
    586.00      0.68423E-01
    586.40      0.68676E-01
    586.80      0.68929E-01
    587.20      0.69184E-01
    587.60      0.69438E-01
    588.00      0.69693E-01
    588.40      0.69948E-01
    588.80      0.70204E-01
    589.20      0.70460E-01
    589.60      0.70716E-01
    590.00      0.70973E-01
    590.40      0.71231E-01
    590.80      0.71488E-01
    591.20      0.71746E-01
    591.60      0.72005E-01
    592.00      0.72264E-01
    592.40      0.72523E-01
    592.80      0.72783E-01
    593.20      0.73043E-01
    593.60      0.73304E-01
    594.00      0.73564E-01
    594.40      0.73826E-01
    594.80      0.74087E-01
    595.20      0.74350E-01
    595.60      0.74612E-01
    596.00      0.74875E-01
    596.40      0.75138E-01
    596.80      0.75402E-01
    597.20      0.75666E-01
    597.60      0.75930E-01
    598.00      0.76195E-01
    598.40      0.76460E-01
    598.80      0.76726E-01
    599.20      0.76992E-01
    599.60      0.77258E-01
    600.00      0.77525E-01
    600.40      0.77793E-01
    600.80      0.78060E-01
    601.20      0.78328E-01
    601.60      0.78596E-01
    602.00      0.78865E-01
    602.40      0.79134E-01
    602.80      0.79404E-01
    603.20      0.79674E-01
    603.60      0.79944E-01
    604.00      0.80214E-01
    604.40      0.80485E-01
    604.80      0.80757E-01
    605.20      0.81028E-01
    605.60      0.81300E-01
    606.00      0.81573E-01
    606.40      0.81846E-01
    606.80      0.82119E-01
    607.20      0.82392E-01
    607.60      0.82666E-01
    608.00      0.82941E-01
    608.40      0.83215E-01
    608.80      0.83490E-01
    609.20      0.83766E-01
    609.60      0.84041E-01
    610.00      0.84317E-01
    610.40      0.84594E-01
    610.80      0.84870E-01
    611.20      0.85148E-01
    611.60      0.85425E-01
    612.00      0.85703E-01
    612.40      0.85981E-01
    612.80      0.86259E-01
    613.20      0.86538E-01
    613.60      0.86817E-01
    614.00      0.87097E-01
    614.40      0.87377E-01
    614.80      0.87657E-01
    615.20      0.87938E-01
    615.60      0.88219E-01
    616.00      0.88500E-01
    616.40      0.88782E-01
    616.80      0.89064E-01
    617.20      0.89346E-01
    617.60      0.89629E-01
    618.00      0.89912E-01
    618.40      0.90195E-01
    618.80      0.90479E-01
    619.20      0.90763E-01
    619.60      0.91047E-01
    620.00      0.91332E-01
    620.40      0.91617E-01
    620.80      0.91902E-01
    621.20      0.92188E-01
    621.60      0.92474E-01
    622.00      0.92760E-01
    622.40      0.93047E-01
    622.80      0.93334E-01
    623.20      0.93621E-01
    623.60      0.93909E-01
    624.00      0.94197E-01
    624.40      0.94485E-01
    624.80      0.94774E-01
    625.20      0.95063E-01
    625.60      0.95352E-01
    626.00      0.95641E-01
    626.40      0.95931E-01
    626.80      0.96221E-01
    627.20      0.96512E-01
    627.60      0.96803E-01
    628.00      0.97094E-01
    628.40      0.97385E-01
    628.80      0.97677E-01
    629.20      0.97969E-01
    629.60      0.98262E-01
    630.00      0.98555E-01
    630.40      0.98848E-01
    630.80      0.99141E-01
    631.20      0.99435E-01
    631.60      0.99729E-01
    632.00      0.10002    
    632.40      0.10032    
    632.80      0.10061    
    633.20      0.10091    
    633.60      0.10120    
    634.00      0.10150    
    634.40      0.10179    
    634.80      0.10209    
    635.20      0.10239    
    635.60      0.10268    
    636.00      0.10298    
    636.40      0.10327    
    636.80      0.10356    
    637.20      0.10386    
    637.60      0.10415    
    638.00      0.10445    
    638.40      0.10474    
    638.80      0.10504    
    639.20      0.10533    
    639.60      0.10563    
    640.00      0.10592    
    640.40      0.10622    
    640.80      0.10652    
    641.20      0.10681    
    641.60      0.10711    
    642.00      0.10741    
    642.40      0.10771    
    642.80      0.10800    
    643.20      0.10830    
    643.60      0.10860    
    644.00      0.10890    
    644.40      0.10920    
    644.80      0.10950    
    645.20      0.10980    
    645.60      0.11010    
    646.00      0.11039    
    646.40      0.11069    
    646.80      0.11099    
    647.20      0.11129    
    647.60      0.11159    
    648.00      0.11189    
    648.40      0.11219    
    648.80      0.11249    
    649.20      0.11279    
    649.60      0.11310    
    650.00      0.11340    
    650.40      0.11370    
    650.80      0.11400    
    651.20      0.11430    
    651.60      0.11461    
    652.00      0.11491    
    652.40      0.11521    
    652.80      0.11551    
    653.20      0.11582    
    653.60      0.11612    
    654.00      0.11643    
    654.40      0.11673    
    654.80      0.11703    
    655.20      0.11734    
    655.60      0.11764    
    656.00      0.11795    
    656.40      0.11825    
    656.80      0.11856    
    657.20      0.11886    
    657.60      0.11917    
    658.00      0.11948    
    658.40      0.11978    
    658.80      0.12009    
    659.20      0.12040    
    659.60      0.12070    
    660.00      0.12101    
    660.40      0.12132    
    660.80      0.12163    
    661.20      0.12193    
    661.60      0.12224    
    662.00      0.12255    
    662.40      0.12286    
    662.80      0.12317    
    663.20      0.12348    
    663.60      0.12379    
    664.00      0.12410    
    664.40      0.12441    
    664.80      0.12472    
    665.20      0.12503    
    665.60      0.12534    
    666.00      0.12565    
    666.40      0.12596    
    666.80      0.12627    
    667.20      0.12658    
    667.60      0.12689    
    668.00      0.12720    
    668.40      0.12752    
    668.80      0.12783    
    669.20      0.12814    
    669.60      0.12845    
    670.00      0.12877    
    670.40      0.12908    
    670.80      0.12939    
    671.20      0.12970    
    671.60      0.13002    
    672.00      0.13033    
    672.40      0.13065    
    672.80      0.13096    
    673.20      0.13127    
    673.60      0.13159    
    674.00      0.13190    
    674.40      0.13222    
    674.80      0.13253    
    675.20      0.13285    
    675.60      0.13316    
    676.00      0.13348    
    676.40      0.13380    
    676.80      0.13411    
    677.20      0.13443    
    677.60      0.13474    
    678.00      0.13506    
    678.40      0.13538    
    678.80      0.13569    
    679.20      0.13601    
    679.60      0.13633    
    680.00      0.13665    
    680.40      0.13696    
    680.80      0.13728    
    681.20      0.13760    
    681.60      0.13792    
    682.00      0.13824    
    682.40      0.13856    
    682.80      0.13887    
    683.20      0.13919    
    683.60      0.13951    
    684.00      0.13983    
    684.40      0.14015    
    684.80      0.14047    
    685.20      0.14079    
    685.60      0.14111    
    686.00      0.14143    
    686.40      0.14175    
    686.80      0.14207    
    687.20      0.14239    
    687.60      0.14271    
    688.00      0.14303    
    688.40      0.14335    
    688.80      0.14367    
    689.20      0.14400    
    689.60      0.14432    
    690.00      0.14464    
    690.40      0.14496    
    690.80      0.14528    
    691.20      0.14561    
    691.60      0.14593    
    692.00      0.14625    
    692.40      0.14657    
    692.80      0.14690    
    693.20      0.14722    
    693.60      0.14754    
    694.00      0.14786    
    694.40      0.14819    
    694.80      0.14851    
    695.20      0.14884    
    695.60      0.14916    
    696.00      0.14948    
    696.40      0.14981    
    696.80      0.15013    
    697.20      0.15046    
    697.60      0.15078    
    698.00      0.15111    
    698.40      0.15143    
    698.80      0.15176    
    699.20      0.15208    
    699.60      0.15241    
    700.00      0.15273    
    700.40      0.15306    
    700.80      0.15338    
    701.20      0.15371    
    701.60      0.15404    
    702.00      0.15436    
    702.40      0.15469    
    702.80      0.15502    
    703.20      0.15534    
    703.60      0.15567    
    704.00      0.15600    
    704.40      0.15632    
    704.80      0.15665    
    705.20      0.15698    
    705.60      0.15730    
    706.00      0.15763    
    706.40      0.15796    
    706.80      0.15829    
    707.20      0.15861    
    707.60      0.15894    
    708.00      0.15927    
    708.40      0.15960    
    708.80      0.15993    
    709.20      0.16026    
    709.60      0.16058    
    710.00      0.16091    
    710.40      0.16124    
    710.80      0.16157    
    711.20      0.16190    
    711.60      0.16223    
    712.00      0.16256    
    712.40      0.16289    
    712.80      0.16322    
    713.20      0.16355    
    713.60      0.16388    
    714.00      0.16421    
    714.40      0.16454    
    714.80      0.16487    
    715.20      0.16520    
    715.60      0.16553    
    716.00      0.16586    
    716.40      0.16619    
    716.80      0.16652    
    717.20      0.16685    
    717.60      0.16718    
    718.00      0.16751    
    718.40      0.16784    
    718.80      0.16817    
    719.20      0.16850    
    719.60      0.16883    
    720.00      0.16917    
    720.40      0.16950    
    720.80      0.16983    
    721.20      0.17016    
    721.60      0.17049    
    722.00      0.17082    
    722.40      0.17116    
    722.80      0.17149    
    723.20      0.17182    
    723.60      0.17215    
    724.00      0.17249    
    724.40      0.17282    
    724.80      0.17315    
    725.20      0.17348    
    725.60      0.17382    
    726.00      0.17415    
    726.40      0.17448    
    726.80      0.17481    
    727.20      0.17515    
    727.60      0.17548    
    728.00      0.17581    
    728.40      0.17615    
    728.80      0.17648    
    729.20      0.17681    
    729.60      0.17715    
    730.00      0.17748    
    730.40      0.17782    
    730.80      0.17815    
    731.20      0.17848    
    731.60      0.17882    
    732.00      0.17915    
    732.40      0.17949    
    732.80      0.17982    
    733.20      0.18015    
    733.60      0.18049    
    734.00      0.18082    
    734.40      0.18116    
    734.80      0.18149    
    735.20      0.18183    
    735.60      0.18216    
    736.00      0.18250    
    736.40      0.18283    
    736.80      0.18317    
    737.20      0.18350    
    737.60      0.18384    
    738.00      0.18417    
    738.40      0.18451    
    738.80      0.18484    
    739.20      0.18518    
    739.60      0.18551    
    740.00      0.18585    
    740.40      0.18619    
    740.80      0.18652    
    741.20      0.18686    
    741.60      0.18719    
    742.00      0.18753    
    742.40      0.18786    
    742.80      0.18820    
    743.20      0.18854    
    743.60      0.18887    
    744.00      0.18921    
    744.40      0.18955    
    744.80      0.18988    
    745.20      0.19022    
    745.60      0.19055    
    746.00      0.19089    
    746.40      0.19123    
    746.80      0.19156    
    747.20      0.19190    
    747.60      0.19224    
    748.00      0.19257    
    748.40      0.19291    
    748.80      0.19325    
    749.20      0.19358    
    749.60      0.19392    
    750.00      0.19426    
    750.40      0.19460    
    750.80      0.19493    
    751.20      0.19527    
    751.60      0.19561    
    752.00      0.19594    
    752.40      0.19628    
    752.80      0.19662    
    753.20      0.19696    
    753.60      0.19729    
    754.00      0.19763    
    754.40      0.19797    
    754.80      0.19830    
    755.20      0.19864    
    755.60      0.19898    
    756.00      0.19932    
    756.40      0.19966    
    756.80      0.19999    
    757.20      0.20033    
    757.60      0.20067    
    758.00      0.20101    
    758.40      0.20134    
    758.80      0.20169    
    759.20      0.20204    
    759.60      0.20238    
    760.00      0.20273    
    760.40      0.20308    
    760.80      0.20343    
    761.20      0.20378    
    761.60      0.20413    
    762.00      0.20448    
    762.40      0.20482    
    762.80      0.20517    
    763.20      0.20552    
    763.60      0.20587    
    764.00      0.20622    
    764.40      0.20657    
    764.80      0.20692    
    765.20      0.20727    
    765.60      0.20762    
    766.00      0.20797    
    766.40      0.20831    
    766.80      0.20866    
    767.20      0.20901    
    767.60      0.20936    
    768.00      0.20971    
    768.40      0.21006    
    768.80      0.21041    
    769.20      0.21076    
    769.60      0.21111    
    770.00      0.21146    
    770.40      0.21182    
    770.80      0.21218    
    771.20      0.21255    
    771.60      0.21291    
    772.00      0.21327    
    772.40      0.21363    
    772.80      0.21399    
    773.20      0.21435    
    773.60      0.21471    
    774.00      0.21508    
    774.40      0.21544    
    774.80      0.21580    
    775.20      0.21616    
    775.60      0.21652    
    776.00      0.21688    
    776.40      0.21724    
    776.80      0.21761    
    777.20      0.21797    
    777.60      0.21833    
    778.00      0.21869    
    778.40      0.21905    
    778.80      0.21941    
    779.20      0.21978    
    779.60      0.22014    
    780.00      0.22050    
    780.40      0.22086    
    780.80      0.22122    
    781.20      0.22159    
    781.60      0.22195    
    782.00      0.22231    
    782.40      0.22267    
    782.80      0.22303    
    783.20      0.22339    
    783.60      0.22376    
    784.00      0.22412    
    784.40      0.22448    
    784.80      0.22484    
    785.20      0.22520    
    785.60      0.22557    
    786.00      0.22593    
    786.40      0.22629    
    786.80      0.22665    
    787.20      0.22701    
    787.60      0.22738    
    788.00      0.22774    
    788.40      0.22810    
    788.80      0.22846    
    789.20      0.22882    
    789.60      0.22919    
    790.00      0.22955    
    790.40      0.22991    
    790.80      0.23027    
    791.20      0.23063    
    791.60      0.23100    
    792.00      0.23136    
    792.40      0.23172    
    792.80      0.23208    
    793.20      0.23244    
    793.60      0.23281    
    794.00      0.23317    
    794.40      0.23353    
    794.80      0.23389    
    795.20      0.23425    
    795.60      0.23462    
    796.00      0.23498    
    796.40      0.23534    
    796.80      0.23570    
    797.20      0.23606    
    797.60      0.23642    
    798.00      0.23679    
    798.40      0.23715    
    798.80      0.23751    
    799.20      0.23787    
    799.60      0.23823    
    800.00      0.23860    
    800.40      0.23896    
    800.80      0.23932    
    801.20      0.23968    
    801.60      0.24004    
    802.00      0.24040    
    802.40      0.24077    
    802.80      0.24113    
    803.20      0.24149    
    803.60      0.24185    
    804.00      0.24221    
    804.40      0.24257    
    804.80      0.24294    
    805.20      0.24330    
    805.60      0.24366    
    806.00      0.24402    
    806.40      0.24438    
    806.80      0.24474    
    807.20      0.24510    
    807.60      0.24547    
    808.00      0.24583    
    808.40      0.24619    
    808.80      0.24655    
    809.20      0.24691    
    809.60      0.24727    
    810.00      0.24763    
    810.40      0.24799    
    810.80      0.24836    
    811.20      0.24872    
    811.60      0.24908    
    812.00      0.24944    
    812.40      0.24980    
    812.80      0.25016    
    813.20      0.25052    
    813.60      0.25088    
    814.00      0.25124    
    814.40      0.25160    
    814.80      0.25196    
    815.20      0.25233    
    815.60      0.25269    
    816.00      0.25305    
    816.40      0.25341    
    816.80      0.25377    
    817.20      0.25413    
    817.60      0.25449    
    818.00      0.25485    
    818.40      0.25521    
    818.80      0.25557    
    819.20      0.25593    
    819.60      0.25629    
    820.00      0.25665    
    820.40      0.25701    
    820.80      0.25737    
    821.20      0.25773    
    821.60      0.25809    
    822.00      0.25845    
    822.40      0.25881    
    822.80      0.25917    
    823.20      0.25953    
    823.60      0.25989    
    824.00      0.26025    
    824.40      0.26061    
    824.80      0.26097    
    825.20      0.26133    
    825.60      0.26169    
    826.00      0.26205    
    826.40      0.26241    
    826.80      0.26277    
    827.20      0.26313    
    827.60      0.26349    
    828.00      0.26385    
    828.40      0.26421    
    828.80      0.26457    
    829.20      0.26493    
    829.60      0.26529    
    830.00      0.26564    
    830.40      0.26600    
    830.80      0.26636    
    831.20      0.26672    
    831.60      0.26708    
    832.00      0.26744    
    832.40      0.26780    
    832.80      0.26816    
    833.20      0.26852    
    833.60      0.26887    
    834.00      0.26923    
    834.40      0.26959    
    834.80      0.26995    
    835.20      0.27031    
    835.60      0.27067    
    836.00      0.27103    
    836.40      0.27138    
    836.80      0.27174    
    837.20      0.27210    
    837.60      0.27246    
    838.00      0.27282    
    838.40      0.27317    
    838.80      0.27353    
    839.20      0.27389    
    839.60      0.27425    
    840.00      0.27461    
    840.40      0.27496    
    840.80      0.27532    
    841.20      0.27568    
    841.60      0.27604    
    842.00      0.27639    
    842.40      0.27675    
    842.80      0.27711    
    843.20      0.27747    
    843.60      0.27783    
    844.00      0.27819    
    844.40      0.27854    
    844.80      0.27890    
    845.20      0.27926    
    845.60      0.27962    
    846.00      0.27997    
    846.40      0.28033    
    846.80      0.28069    
    847.20      0.28105    
    847.60      0.28140    
    848.00      0.28176    
    848.40      0.28212    
    848.80      0.28248    
    849.20      0.28283    
    849.60      0.28319    
    850.00      0.28355     
    850.40      0.28390    
    850.80      0.28426    
    851.20      0.28462    
    851.60      0.28497    
    852.00      0.28533    
    852.40      0.28569    
    852.80      0.28604    
    853.20      0.28640    
    853.60      0.28676    
    854.00      0.28717    
    854.40      0.28757    
    854.80      0.28798    
    855.20      0.28839    
    855.60      0.28880    
    856.00      0.28920    
    856.40      0.28961    
    856.80      0.29002    
    857.20      0.29042    
    857.60      0.29083    
    858.00      0.29124    
    858.40      0.29165    
    858.80      0.29205    
    859.20      0.29246    
    859.60      0.29287    
    860.00      0.29327    
    860.40      0.29368    
    860.80      0.29408    
    861.20      0.29449    
    861.60      0.29490    
    862.00      0.29530    
    862.40      0.29571    
    862.80      0.29611    
    863.20      0.29652    
    863.60      0.29693    
    864.00      0.29733    
    864.40      0.29774    
    864.80      0.29814    
    865.20      0.29855    
    865.60      0.29895    
    866.00      0.29936    
    866.40      0.29976    
    866.80      0.30017    
    867.20      0.30057    
    867.60      0.30098    
    868.00      0.30138    
    868.40      0.30179    
    868.80      0.30219    
    869.20      0.30260    
    869.60      0.30300    
    870.00      0.30340    
    870.40      0.30381    
    870.80      0.30421    
    871.20      0.30462    
    871.60      0.30502    
    872.00      0.30542    
    872.40      0.30583    
    872.80      0.30623    
    873.20      0.30663    
    873.60      0.30704    
    874.00      0.30744    
    874.40      0.30784    
    874.80      0.30825    
    875.20      0.30865    
    875.60      0.30905    
    876.00      0.30945    
    876.40      0.30986    
    876.80      0.31026    
    877.20      0.31066    
    877.60      0.31106    
    878.00      0.31146    
    878.40      0.31187    
    878.80      0.31227    
    879.20      0.31267    
    879.60      0.31307    
    880.00      0.31347    
    880.40      0.31387    
    880.80      0.31428    
    881.20      0.31468    
    881.60      0.31508    
    882.00      0.31548    
    882.40      0.31588    
    882.80      0.31628    
    883.20      0.31668    
    883.60      0.31708    
    884.00      0.31748    
    884.40      0.31788    
    884.80      0.31828    
    885.20      0.31868    
    885.60      0.31908    
    886.00      0.31948    
    886.40      0.31988    
    886.80      0.32028    
    887.20      0.32068    
    887.60      0.32108    
    888.00      0.32148    
    888.40      0.32188    
    888.80      0.32228    
    889.20      0.32268    
    889.60      0.32308    
    890.00      0.32348    
    890.40      0.32388    
    890.80      0.32427    
    891.20      0.32467    
    891.60      0.32507    
    892.00      0.32547    
    892.40      0.32587    
    892.80      0.32626    
    893.20      0.32666    
    893.60      0.32706    
    894.00      0.32746    
    894.40      0.32785    
    894.80      0.32825    
    895.20      0.32865    
    895.60      0.32905    
    896.00      0.32944    
    896.40      0.32984    
    896.80      0.33024    
    897.20      0.33063    
    897.60      0.33103    
    898.00      0.33142    
    898.40      0.33182    
    898.80      0.33222    
    899.20      0.33261    
    899.60      0.33301    
    900.00      0.33340    
    900.40      0.33380    
    900.80      0.33419    
    901.20      0.33459    
    901.60      0.33498    
    902.00      0.33538    
    902.40      0.33577    
    902.80      0.33617    
    903.20      0.33656    
    903.60      0.33695    
    904.00      0.33735    
    904.40      0.33774    
    904.80      0.33814    
    905.20      0.33853    
    905.60      0.33892    
    906.00      0.33932    
    906.40      0.33971    
    906.80      0.34010    
    907.20      0.34050    
    907.60      0.34089    
    908.00      0.34128    
    908.40      0.34167    
    908.80      0.34207    
    909.20      0.34246    
    909.60      0.34285    
    910.00      0.34324    
    910.40      0.34364    
    910.80      0.34403    
    911.20      0.34442    
    911.60      0.34481    
    912.00      0.34520    
    912.40      0.34559    
    912.80      0.34598    
    913.20      0.34637    
    913.60      0.34676    
    914.00      0.34716    
    914.40      0.34755    
    914.80      0.34794    
    915.20      0.34833    
    915.60      0.34872    
    916.00      0.34911    
    916.40      0.34950    
    916.80      0.34989    
    917.20      0.35027    
    917.60      0.35066    
    918.00      0.35105    
    918.40      0.35144    
    918.80      0.35183    
    919.20      0.35222    
    919.60      0.35261    
    920.00      0.35300    
    920.40      0.35338    
    920.80      0.35377    
    921.20      0.35416    
    921.60      0.35455    
    922.00      0.35493    
    922.40      0.35532    
    922.80      0.35571    
    923.20      0.35610    
    923.60      0.35648    
    924.00      0.35687    
    924.40      0.35726    
    924.80      0.35764    
    925.20      0.35803    
    925.60      0.35842    
    926.00      0.35880    
    926.40      0.35919    
    926.80      0.35957    
    927.20      0.35996    
    927.60      0.36034    
    928.00      0.36073    
    928.40      0.36111    
    928.80      0.36150    
    929.20      0.36188    
    929.60      0.36227    
    930.00      0.36265    
    930.40      0.36304    
    930.80      0.36342    
    931.20      0.36380    
    931.60      0.36419    
    932.00      0.36457    
    932.40      0.36496    
    932.80      0.36532    
    933.20      0.36569    
    933.60      0.36605    
    934.00      0.36641    
    934.40      0.36677    
    934.80      0.36713    
    935.20      0.36749    
    935.60      0.36785    
    936.00      0.36821    
    936.40      0.36857    
    936.80      0.36893    
    937.20      0.36929    
    937.60      0.36965    
    938.00      0.37001    
    938.40      0.37037    
    938.80      0.37072    
    939.20      0.37108    
    939.60      0.37144    
    940.00      0.37180    
    940.40      0.37216    
    940.80      0.37252    
    941.20      0.37287    
    941.60      0.37323    
    942.00      0.37359    
    942.40      0.37395    
    942.80      0.37431    
    943.20      0.37466    
    943.60      0.37502    
    944.00      0.37538    
    944.40      0.37573    
    944.80      0.37609    
    945.20      0.37645    
    945.60      0.37680    
    946.00      0.37716    
    946.40      0.37751    
    946.80      0.37787    
    947.20      0.37822    
    947.60      0.37857    
    948.00      0.37892    
    948.40      0.37927    
    948.80      0.37962    
    949.20      0.37997    
    949.60      0.38032    
    950.00      0.38067    
    950.40      0.38102    
    950.80      0.38137    
    951.20      0.38172    
    951.60      0.38207    
    952.00      0.38242    
    952.40      0.38277    
    952.80      0.38312    
    953.20      0.38346    
    953.60      0.38381    
    954.00      0.38416    
    954.40      0.38451    
    954.80      0.38486    
    955.20      0.38521    
    955.60      0.38555    
    956.00      0.38590    
    956.40      0.38625    
    956.80      0.38660    
    957.20      0.38694    
    957.60      0.38729    
    958.00      0.38764    
    958.40      0.38798    
    958.80      0.38833    
    959.20      0.38868    
    959.60      0.38902    
    960.00      0.38937    
    960.40      0.38972    
    960.80      0.39006    
    961.20      0.39041    
    961.60      0.39075    
    962.00      0.39110    
    962.40      0.39144    
    962.80      0.39179    
    963.20      0.39213    
    963.60      0.39248    
    964.00      0.39282    
    964.40      0.39316    
    964.80      0.39351    
    965.20      0.39385    
    965.60      0.39420    
    966.00      0.39454    
    966.40      0.39488    
    966.80      0.39523    
    967.20      0.39557    
    967.60      0.39591    
    968.00      0.39625    
    968.40      0.39660    
    968.80      0.39694    
    969.20      0.39728    
    969.60      0.39762    
    970.00      0.39796    
    970.40      0.39831    
    970.80      0.39865    
    971.20      0.39899    
    971.60      0.39933    
    972.00      0.39967    
    972.40      0.40001    
    972.80      0.40035    
    973.20      0.40069    
    973.60      0.40103    
    974.00      0.40137    
    974.40      0.40171    
    974.80      0.40205    
    975.20      0.40239    
    975.60      0.40273    
    976.00      0.40307    
    976.40      0.40341    
    976.80      0.40375    
    977.20      0.40409    
    977.60      0.40443    
    978.00      0.40477    
    978.40      0.40511    
    978.80      0.40544    
    979.20      0.40578    
    979.60      0.40612    
    980.00      0.40646    
    980.40      0.40679    
    980.80      0.40713    
    981.20      0.40747    
    981.60      0.40781    
    982.00      0.40814    
    982.40      0.40848    
    982.80      0.40882    
    983.20      0.40915    
    983.60      0.40949    
    984.00      0.40982    
    984.40      0.41016    
    984.80      0.41050    
    985.20      0.41083    
    985.60      0.41117    
    986.00      0.41150    
    986.40      0.41184    
    986.80      0.41217    
    987.20      0.41251    
    987.60      0.41284    
    988.00      0.41318    
    988.40      0.41351    
    988.80      0.41384    
    989.20      0.41418    
    989.60      0.41451    
    990.00      0.41484    
    990.40      0.41518    
    990.80      0.41551    
    991.20      0.41584    
    991.60      0.41618    
    992.00      0.41651    
    992.40      0.41684    
    992.80      0.41717    
    993.20      0.41751    
    993.60      0.41784    
    994.00      0.41817    
    994.40      0.41850    
    994.80      0.41883    
    995.20      0.41916    
    995.60      0.41949    
    996.00      0.41983    
    996.40      0.42016    
    996.80      0.42049    
    997.20      0.42082    
    997.60      0.42115    
    998.00      0.42148    
    998.40      0.42181    
    998.80      0.42214    
    999.20      0.42247    
    999.60      0.42280    
    1000.0      0.42312    
    1000.4      0.42345    
    1000.8      0.42378    
    1001.2      0.42411    
    1001.6      0.42444    
    1002.0      0.42477    
    1002.4      0.42510    
    1002.8      0.42542    
    1003.2      0.42575    
    1003.6      0.42608    
    1004.0      0.42641    
    1004.4      0.42673    
    1004.8      0.42706    
    1005.2      0.42739    
    1005.6      0.42771    
    1006.0      0.42804    
    1006.4      0.42837    
    1006.8      0.42869    
    1007.2      0.42902    
    1007.6      0.42935    
    1008.0      0.42967    
    1008.4      0.43000    
    1008.8      0.43032    
    1009.2      0.43065    
    1009.6      0.43097    
    1010.0      0.43130    
    1010.4      0.43162    
    1010.8      0.43195    
    1011.2      0.43227    
    1011.6      0.43259    
    1012.0      0.43292    
    1012.4      0.43324    
    1012.8      0.43357    
    1013.2      0.43389    
    1013.6      0.43421    
    1014.0      0.43454    
    1014.4      0.43486    
    1014.8      0.43518    
    1015.2      0.43550    
    1015.6      0.43583    
    1016.0      0.43615    
    1016.4      0.43647    
    1016.8      0.43679    
    1017.2      0.43711    
    1017.6      0.43744    
    1018.0      0.43776    
    1018.4      0.43808    
    1018.8      0.43840    
    1019.2      0.43873    
    1019.6      0.43906    
    1020.0      0.43938    
    1020.4      0.43971    
    1020.8      0.44004    
    1021.2      0.44036    
    1021.6      0.44069    
    1022.0      0.44102    
    1022.4      0.44135    
    1022.8      0.44167    
    1023.2      0.44200    
    1023.6      0.44232    
    1024.0      0.44265    
    1024.4      0.44298    
    1024.8      0.44330    
    1025.2      0.44363    
    1025.6      0.44395    
    1026.0      0.44428    
    1026.4      0.44460    
    1026.8      0.44493    
    1027.2      0.44525    
    1027.6      0.44557    
    1028.0      0.44590    
    1028.4      0.44622    
    1028.8      0.44655    
    1029.2      0.44687    
    1029.6      0.44719    
    1030.0      0.44752    
    1030.4      0.44784    
    1030.8      0.44816    
    1031.2      0.44848    
    1031.6      0.44881    
    1032.0      0.44913    
    1032.4      0.44945    
    1032.8      0.44977    
    1033.2      0.45009    
    1033.6      0.45042    
    1034.0      0.45074    
    1034.4      0.45109    
    1034.8      0.45144    
    1035.2      0.45179    
    1035.6      0.45214    
    1036.0      0.45250    
    1036.4      0.45285    
    1036.8      0.45320    
    1037.2      0.45355    
    1037.6      0.45390    
    1038.0      0.45425    
    1038.4      0.45460    
    1038.8      0.45495    
    1039.2      0.45530    
    1039.6      0.45564    
    1040.0      0.45599    
    1040.4      0.45634    
    1040.8      0.45669    
    1041.2      0.45704    
    1041.6      0.45739    
    1042.0      0.45773    
    1042.4      0.45808    
    1042.8      0.45843    
    1043.2      0.45878    
    1043.6      0.45912    
    1044.0      0.45947    
    1044.4      0.45982    
    1044.8      0.46016    
    1045.2      0.46051    
    1045.6      0.46085    
    1046.0      0.46120    
    1046.4      0.46155    
    1046.8      0.46189    
    1047.2      0.46224    
    1047.6      0.46258    
    1048.0      0.46293    
    1048.4      0.46327    
    1048.8      0.46361    
    1049.2      0.46396    
    1049.6      0.46430    
    1050.0      0.46465      
    1050.4      0.46499    
    1050.8      0.46533    
    1051.2      0.46567    
    1051.6      0.46602    
    1052.0      0.46636    
    1052.4      0.46670    
    1052.8      0.46704    
    1053.2      0.46739    
    1053.6      0.46773    
    1054.0      0.46807    
    1054.4      0.46841    
    1054.8      0.46875    
    1055.2      0.46909    
    1055.6      0.46943    
    1056.0      0.46977    
    1056.4      0.47011    
    1056.8      0.47045    
    1057.2      0.47079    
    1057.6      0.47113    
    1058.0      0.47147    
    1058.4      0.47181    
    1058.8      0.47215    
    1059.2      0.47249    
    1059.6      0.47283    
    1060.0      0.47317    
    1060.4      0.47351    
    1060.8      0.47384    
    1061.2      0.47418    
    1061.6      0.47452    
    1062.0      0.47486    
    1062.4      0.47519    
    1062.8      0.47553    
    1063.2      0.47587    
    1063.6      0.47620    
    1064.0      0.47654    
    1064.4      0.47688    
    1064.8      0.47721    
    1065.2      0.47755    
    1065.6      0.47788    
    1066.0      0.47822    
    1066.4      0.47855    
    1066.8      0.47889    
    1067.2      0.47922    
    1067.6      0.47956    
    1068.0      0.47989    
    1068.4      0.48022    
    1068.8      0.48056    
    1069.2      0.48089    
    1069.6      0.48123    
    1070.0      0.48156    
    1070.4      0.48189    
    1070.8      0.48222    
    1071.2      0.48256    
    1071.6      0.48289    
    1072.0      0.48322    
    1072.4      0.48355    
    1072.8      0.48388    
    1073.2      0.48422    
    1073.6      0.48455    
    1074.0      0.48488    
    1074.4      0.48521    
    1074.8      0.48554    
    1075.2      0.48587    
    1075.6      0.48620    
    1076.0      0.48653    
    1076.4      0.48686    
    1076.8      0.48719    
    1077.2      0.48752    
    1077.6      0.48785    
    1078.0      0.48818    
    1078.4      0.48851    
    1078.8      0.48884    
    1079.2      0.48916    
    1079.6      0.48949    
    1080.0      0.48982    
    1080.4      0.49015    
    1080.8      0.49047    
    1081.2      0.49077    
    1081.6      0.49107    
    1082.0      0.49137    
    1082.4      0.49168    
    1082.8      0.49198    
    1083.2      0.49228    
    1083.6      0.49258    
    1084.0      0.49288    
    1084.4      0.49318    
    1084.8      0.49348    
    1085.2      0.49378    
    1085.6      0.49408    
    1086.0      0.49437    
    1086.4      0.49467    
    1086.8      0.49497    
    1087.2      0.49527    
    1087.6      0.49557    
    1088.0      0.49587    
    1088.4      0.49617    
    1088.8      0.49646    
    1089.2      0.49676    
    1089.6      0.49706    
    1090.0      0.49736    
    1090.4      0.49765    
    1090.8      0.49795    
    1091.2      0.49825    
    1091.6      0.49854    
    1092.0      0.49884    
    1092.4      0.49914    
    1092.8      0.49943    
    1093.2      0.49973    
    1093.6      0.50002    
    1094.0      0.50032    
    1094.4      0.50061    
    1094.8      0.50091    
    1095.2      0.50120    
    1095.6      0.50150    
    1096.0      0.50179    
    1096.4      0.50209    
    1096.8      0.50238    
    1097.2      0.50266    
    1097.6      0.50294    
    1098.0      0.50322    
    1098.4      0.50350    
    1098.8      0.50378    
    1099.2      0.50405    
    1099.6      0.50433    
    1100.0      0.50461    
    1100.4      0.50489    
    1100.8      0.50517    
    1101.2      0.50544    
    1101.6      0.50572    
    1102.0      0.50600    
    1102.4      0.50628    
    1102.8      0.50655    
    1103.2      0.50683    
    1103.6      0.50711    
    1104.0      0.50738    
    1104.4      0.50766    
    1104.8      0.50793    
    1105.2      0.50821    
    1105.6      0.50849    
    1106.0      0.50876    
    1106.4      0.50904    
    1106.8      0.50931    
    1107.2      0.50959    
    1107.6      0.50986    
    1108.0      0.51014    
    1108.4      0.51041    
    1108.8      0.51069    
    1109.2      0.51096    
    1109.6      0.51123    
    1110.0      0.51151    
    1110.4      0.51178    
    1110.8      0.51205    
    1111.2      0.51233    
    1111.6      0.51260    
    1112.0      0.51287    
    1112.4      0.51315    
    1112.8      0.51342    
    1113.2      0.51369    
    1113.6      0.51396    
    1114.0      0.51424    
    1114.4      0.51451    
    1114.8      0.51478    
    1115.2      0.51505    
    1115.6      0.51532    
    1116.0      0.51559    
    1116.4      0.51587    
    1116.8      0.51614    
    1117.2      0.51641    
    1117.6      0.51668    
    1118.0      0.51695    
    1118.4      0.51722    
    1118.8      0.51749    
    1119.2      0.51776    
    1119.6      0.51803    
    1120.0      0.51830    
    1120.4      0.51857    
    1120.8      0.51884    
    1121.2      0.51911    
    1121.6      0.51938    
    1122.0      0.51964    
    1122.4      0.51991    
    1122.8      0.52018    
    1123.2      0.52045    
    1123.6      0.52072    
    1124.0      0.52099    
    1124.4      0.52125    
    1124.8      0.52152    
    1125.2      0.52179    
    1125.6      0.52206    
    1126.0      0.52232    
    1126.4      0.52259    
    1126.8      0.52286    
    1127.2      0.52312    
    1127.6      0.52339    
    1128.0      0.52366    
    1128.4      0.52392    
    1128.8      0.52419    
    1129.2      0.52445    
    1129.6      0.52472    
    1130.0      0.52498    
    1130.4      0.52525    
    1130.8      0.52551    
    1131.2      0.52578    
    1131.6      0.52604    
    1132.0      0.52631    
    1132.4      0.52657    
    1132.8      0.52684    
    1133.2      0.52710    
    1133.6      0.52736    
    1134.0      0.52763    
    1134.4      0.52789    
    1134.8      0.52816    
    1135.2      0.52842    
    1135.6      0.52868    
    1136.0      0.52894    
    1136.4      0.52921    
    1136.8      0.52947    
    1137.2      0.52973    
    1137.6      0.52999    
    1138.0      0.53026    
    1138.4      0.53052    
    1138.8      0.53078    
    1139.2      0.53104    
    1139.6      0.53130    
    1140.0      0.53156    
    1140.4      0.53182    
    1140.8      0.53208    
    1141.2      0.53235    
    1141.6      0.53261    
    1142.0      0.53287    
    1142.4      0.53313    
    1142.8      0.53339    
    1143.2      0.53365    
    1143.6      0.53391    
    1144.0      0.53417    
    1144.4      0.53442    
    1144.8      0.53468    
    1145.2      0.53494    
    1145.6      0.53520    
    1146.0      0.53546    
    1146.4      0.53572    
    1146.8      0.53599    
    1147.2      0.53626    
    1147.6      0.53653    
    1148.0      0.53680    
    1148.4      0.53707    
    1148.8      0.53734    
    1149.2      0.53762    
    1149.6      0.53789    
    1150.0      0.53816    
    1150.4      0.53843    
    1150.8      0.53870    
    1151.2      0.53897    
    1151.6      0.53924    
    1152.0      0.53951    
    1152.4      0.53977    
    1152.8      0.54004    
    1153.2      0.54031    
    1153.6      0.54058    
    1154.0      0.54085    
    1154.4      0.54112    
    1154.8      0.54139    
    1155.2      0.54165    
    1155.6      0.54192    
    1156.0      0.54219    
    1156.4      0.54246    
    1156.8      0.54272    
    1157.2      0.54299    
    1157.6      0.54326    
    1158.0      0.54352    
    1158.4      0.54379    
    1158.8      0.54406    
    1159.2      0.54432    
    1159.6      0.54459    
    1160.0      0.54486    
    1160.4      0.54512    
    1160.8      0.54539    
    1161.2      0.54565    
    1161.6      0.54592    
    1162.0      0.54618    
    1162.4      0.54645    
    1162.8      0.54671    
    1163.2      0.54698    
    1163.6      0.54724    
    1164.0      0.54751    
    1164.4      0.54777    
    1164.8      0.54804    
    1165.2      0.54831    
    1165.6      0.54857    
    1166.0      0.54884    
    1166.4      0.54910    
    1166.8      0.54937    
    1167.2      0.54963    
    1167.6      0.54990    
    1168.0      0.55016    
    1168.4      0.55043    
    1168.8      0.55069    
    1169.2      0.55096    
    1169.6      0.55122    
    1170.0      0.55149    
    1170.4      0.55175    
    1170.8      0.55201    
    1171.2      0.55228    
    1171.6      0.55254    
    1172.0      0.55280    
    1172.4      0.55306    
    1172.8      0.55333    
    1173.2      0.55359    
    1173.6      0.55385    
    1174.0      0.55411    
    1174.4      0.55438    
    1174.8      0.55464    
    1175.2      0.55490    
    1175.6      0.55516    
    1176.0      0.55542    
    1176.4      0.55568    
    1176.8      0.55594    
    1177.2      0.55620    
    1177.6      0.55647    
    1178.0      0.55673    
    1178.4      0.55699    
    1178.8      0.55725    
    1179.2      0.55751    
    1179.6      0.55777    
    1180.0      0.55803    
    1180.4      0.55828    
    1180.8      0.55854    
    1181.2      0.55880    
    1181.6      0.55906    
    1182.0      0.55932    
    1182.4      0.55958    
    1182.8      0.55984    
    1183.2      0.56010    
    1183.6      0.56035    
    1184.0      0.56061    
    1184.4      0.56087    
    1184.8      0.56113    
    1185.2      0.56138    
    1185.6      0.56164    
    1186.0      0.56190    
    1186.4      0.56215    
    1186.8      0.56241    
    1187.2      0.56267    
    1187.6      0.56292    
    1188.0      0.56318    
    1188.4      0.56344    
    1188.8      0.56369    
    1189.2      0.56395    
    1189.6      0.56420    
    1190.0      0.56446    
    1190.4      0.56471    
    1190.8      0.56497    
    1191.2      0.56522    
    1191.6      0.56548    
    1192.0      0.56573    
    1192.4      0.56599    
    1192.8      0.56624    
    1193.2      0.56649    
    1193.6      0.56675    
    1194.0      0.56700    
    1194.4      0.56725    
    1194.8      0.56751    
    1195.2      0.56776    
    1195.6      0.56801    
    1196.0      0.56827    
    1196.4      0.56852    
    1196.8      0.56877    
    1197.2      0.56902    
    1197.6      0.56927    
    1198.0      0.56953    
    1198.4      0.56978    
    1198.8      0.57006    
    1199.2      0.57033    
    1199.6      0.57060    
    1200.0      0.57087    
    1200.4      0.57114    
    1200.8      0.57141    
    1201.2      0.57168    
    1201.6      0.57195    
    1202.0      0.57222    
    1202.4      0.57249    
    1202.8      0.57276    
    1203.2      0.57303    
    1203.6      0.57330    
    1204.0      0.57357    
    1204.4      0.57384    
    1204.8      0.57411    
    1205.2      0.57437    
    1205.6      0.57464    
    1206.0      0.57491    
    1206.4      0.57518    
    1206.8      0.57545    
    1207.2      0.57571    
    1207.6      0.57598    
    1208.0      0.57625    
    1208.4      0.57651    
    1208.8      0.57678    
    1209.2      0.57705    
    1209.6      0.57731    
    1210.0      0.57758    
    1210.4      0.57785    
    1210.8      0.57811    
    1211.2      0.57838    
    1211.6      0.57864    
    1212.0      0.57891    
    1212.4      0.57917    
    1212.8      0.57944    
    1213.2      0.57970    
    1213.6      0.57997    
    1214.0      0.58023    
    1214.4      0.58050    
    1214.8      0.58076    
    1215.2      0.58102    
    1215.6      0.58129    
    1216.0      0.58155    
    1216.4      0.58183    
    1216.8      0.58211    
    1217.2      0.58239    
    1217.6      0.58267    
    1218.0      0.58295    
    1218.4      0.58323    
    1218.8      0.58351    
    1219.2      0.58379    
    1219.6      0.58407    
    1220.0      0.58435    
    1220.4      0.58463    
    1220.8      0.58491    
    1221.2      0.58519    
    1221.6      0.58546    
    1222.0      0.58574    
    1222.4      0.58602    
    1222.8      0.58630    
    1223.2      0.58658    
    1223.6      0.58685    
    1224.0      0.58713    
    1224.4      0.58741    
    1224.8      0.58768    
    1225.2      0.58796    
    1225.6      0.58824    
    1226.0      0.58851    
    1226.4      0.58879    
    1226.8      0.58906    
    1227.2      0.58934    
    1227.6      0.58962    
    1228.0      0.58989    
    1228.4      0.59017    
    1228.8      0.59044    
    1229.2      0.59071    
    1229.6      0.59099    
    1230.0      0.59126    
    1230.4      0.59154    
    1230.8      0.59181    
    1231.2      0.59208    
    1231.6      0.59236    
    1232.0      0.59263    
    1232.4      0.59290    
    1232.8      0.59318    
    1233.2      0.59345    
    1233.6      0.59372    
    1234.0      0.59399    
    1234.4      0.59427    
    1234.8      0.59454    
    1235.2      0.59481    
    1235.6      0.59508    
    1236.0      0.59535    
    1236.4      0.59562    
    1236.8      0.59589    
    1237.2      0.59616    
    1237.6      0.59643    
    1238.0      0.59670    
    1238.4      0.59697    
    1238.8      0.59724    
    1239.2      0.59751    
    1239.6      0.59778    
    1240.0      0.59805    
    1240.4      0.59832    
    1240.8      0.59859    
    1241.2      0.59886    
    1241.6      0.59912    
    1242.0      0.59939    
    1242.4      0.59966    
    1242.8      0.59993    
    1243.2      0.60020    
    1243.6      0.60046    
    1244.0      0.60073    
    1244.4      0.60100    
    1244.8      0.60126    
    1245.2      0.60153    
    1245.6      0.60180    
    1246.0      0.60206    
    1246.4      0.60233    
    1246.8      0.60259    
    1247.2      0.60286    
    1247.6      0.60312    
    1248.0      0.60339    
    1248.4      0.60365    
    1248.8      0.60392    
    1249.2      0.60418    
    1249.6      0.60445    
    1250.0      0.60471    
    1250.7      0.60517    
    1251.4      0.60563    
    1252.1      0.60610    
    1252.8      0.60656    
    1253.5      0.60702    
    1254.2      0.60749    
    1254.9      0.60795    
    1255.6      0.60842    
    1256.3      0.60888    
    1257.0      0.60934    
    1257.7      0.60980    
    1258.4      0.61027    
    1259.1      0.61073    
    1259.8      0.61119    
    1260.5      0.61165    
    1261.2      0.61210    
    1261.9      0.61256    
    1262.6      0.61302    
    1263.3      0.61348    
    1264.0      0.61393    
    1264.7      0.61439    
    1265.4      0.61484    
    1266.1      0.61530    
    1266.8      0.61575    
    1267.5      0.61621    
    1268.2      0.61666    
    1268.9      0.61711    
    1269.6      0.61756    
    1270.3      0.61801    
    1271.0      0.61846    
    1271.7      0.61893    
    1272.4      0.61941    
    1273.1      0.61988    
    1273.8      0.62035    
    1274.5      0.62083    
    1275.2      0.62130    
    1275.9      0.62177    
    1276.6      0.62224    
    1277.3      0.62271    
    1278.0      0.62318    
    1278.7      0.62365    
    1279.4      0.62411    
    1280.1      0.62458    
    1280.8      0.62505    
    1281.5      0.62551    
    1282.2      0.62598    
    1282.9      0.62644    
    1283.6      0.62690    
    1284.3      0.62737    
    1285.0      0.62783    
    1285.7      0.62829    
    1286.4      0.62875    
    1287.1      0.62921    
    1287.8      0.62967    
    1288.5      0.63013    
    1289.2      0.63059    
    1289.9      0.63105    
    1290.6      0.63150    
    1291.3      0.63196    
    1292.0      0.63242    
    1292.7      0.63287    
    1293.4      0.63333    
    1294.1      0.63378    
    1294.8      0.63423    
    1295.5      0.63469    
    1296.2      0.63514    
    1296.9      0.63559    
    1297.6      0.63604    
    1298.3      0.63649    
    1299.0      0.63694    
    1299.7      0.63739    
    1300.4      0.63784    
    1301.1      0.63828    
    1301.8      0.63873    
    1302.5      0.63918    
    1303.2      0.63962    
    1303.9      0.64007    
    1304.6      0.64051    
    1305.3      0.64096    
    1306.0      0.64140    
    1306.7      0.64184    
    1307.4      0.64228    
    1308.1      0.64272    
    1308.8      0.64316    
    1309.5      0.64360    
    1310.2      0.64403    
    1310.9      0.64446    
    1311.6      0.64488    
    1312.3      0.64531    
    1313.0      0.64574    
    1313.7      0.64616    
    1314.4      0.64659    
    1315.1      0.64701    
    1315.8      0.64744    
    1316.5      0.64786    
    1317.2      0.64829    
    1317.9      0.64871    
    1318.6      0.64913    
    1319.3      0.64955    
    1320.0      0.64997    
    1320.7      0.65039    
    1321.4      0.65081    
    1322.1      0.65123    
    1322.8      0.65165    
    1323.5      0.65207    
    1324.2      0.65248    
    1324.9      0.65290    
    1325.6      0.65332    
    1326.3      0.65373    
    1327.0      0.65415    
    1327.7      0.65456    
    1328.4      0.65498    
    1329.1      0.65534    
    1329.8      0.65569    
    1330.5      0.65603    
    1331.2      0.65638    
    1331.9      0.65672    
    1332.6      0.65707    
    1333.3      0.65741    
    1334.0      0.65775    
    1334.7      0.65810    
    1335.4      0.65844    
    1336.1      0.65878    
    1336.8      0.65912    
    1337.5      0.65946    
    1338.2      0.65981    
    1338.9      0.66015    
    1339.6      0.66049    
    1340.3      0.66083    
    1341.0      0.66116    
    1341.7      0.66150    
    1342.4      0.66184    
    1343.1      0.66218    
    1343.8      0.66252    
    1344.5      0.66285    
    1345.2      0.66319    
    1345.9      0.66353    
    1346.6      0.66386    
    1347.3      0.66420    
    1348.0      0.66453    
    1348.7      0.66487    
    1349.4      0.66520    
    1350.1      0.66553    
    1350.8      0.66587    
    1351.5      0.66620    
    1352.2      0.66653    
    1352.9      0.66687    
    1353.6      0.66720    
    1354.3      0.66753    
    1355.0      0.66786    
    1355.7      0.66819    
    1356.4      0.66852    
    1357.1      0.66885    
    1357.8      0.66918    
    1358.5      0.66951    
    1359.2      0.66984    
    1359.9      0.67016    
    1360.6      0.67049    
    1361.3      0.67082    
    1362.0      0.67115    
    1362.7      0.67147    
    1363.4      0.67180    
    1364.1      0.67212    
    1364.8      0.67245    
    1365.5      0.67277    
    1366.2      0.67310    
    1366.9      0.67342    
    1367.6      0.67374    
    1368.3      0.67407    
    1369.0      0.67439    
    1369.7      0.67471    
    1370.4      0.67503    
    1371.1      0.67536    
    1371.8      0.67568    
    1372.5      0.67600    
    1373.2      0.67632    
    1373.9      0.67664    
    1374.6      0.67696    
    1375.3      0.67728    
    1376.0      0.67760    
    1376.7      0.67791    
    1377.4      0.67823    
    1378.1      0.67855    
    1378.8      0.67887    
    1379.5      0.67918    
    1380.2      0.67950    
    1380.9      0.67982    
    1381.6      0.68013    
    1382.3      0.68045    
    1383.0      0.68076    
    1383.7      0.68108    
    1384.4      0.68139    
    1385.1      0.68170    
    1385.8      0.68202    
    1386.5      0.68233    
    1387.2      0.68264    
    1387.9      0.68295    
    1388.6      0.68327    
    1389.3      0.68358    
    1390.0      0.68389    
    1390.7      0.68420    
    1391.4      0.68451    
    1392.1      0.68482    
    1392.8      0.68513    
    1393.5      0.68544    
    1394.2      0.68575    
    1394.9      0.68605    
    1395.6      0.68636    
    1396.3      0.68667    
    1397.0      0.68698    
    1397.7      0.68728    
    1398.4      0.68759    
    1399.1      0.68790    
    1399.8      0.68820    
    1400.5      0.68851    
    1401.2      0.68881    
    1401.9      0.68912    
    1402.6      0.68942    
    1403.3      0.68972    
    1404.0      0.69003    
    1404.7      0.69033    
    1405.4      0.69063    
    1406.1      0.69094    
    1406.8      0.69124    
    1407.5      0.69154    
    1408.2      0.69184    
    1408.9      0.69214    
    1409.6      0.69244    
    1410.3      0.69274    
    1411.0      0.69304    
    1411.7      0.69334    
    1412.4      0.69364    
    1413.1      0.69394    
    1413.8      0.69423    
    1414.5      0.69453    
    1415.2      0.69483    
    1415.9      0.69513    
    1416.6      0.69542    
    1417.3      0.69572    
    1418.0      0.69602    
    1418.7      0.69631    
    1419.4      0.69661    
    1420.1      0.69690    
    1420.8      0.69720    
    1421.5      0.69749    
    1422.2      0.69778    
    1422.9      0.69808    
    1423.6      0.69837    
    1424.3      0.69866    
    1425.0      0.69895    
    1425.7      0.69925    
    1426.4      0.69954    
    1427.1      0.69983    
    1427.8      0.70012    
    1428.5      0.70041    
    1429.2      0.70070    
    1429.9      0.70099    
    1430.6      0.70128    
    1431.3      0.70157    
    1432.0      0.70186    
    1432.7      0.70214    
    1433.4      0.70243    
    1434.1      0.70272    
    1434.8      0.70301    
    1435.5      0.70329    
    1436.2      0.70358    
    1436.9      0.70386    
    1437.6      0.70415    
    1438.3      0.70444    
    1439.0      0.70472    
    1439.7      0.70500    
    1440.4      0.70529    
    1441.1      0.70557    
    1441.8      0.70586    
    1442.5      0.70614    
    1443.2      0.70642    
    1443.9      0.70670    
    1444.6      0.70699    
    1445.3      0.70727    
    1446.0      0.70755    
    1446.7      0.70783    
    1447.4      0.70811    
    1448.1      0.70839    
    1448.8      0.70867    
    1449.5      0.70895    
    1450.2      0.70923    
    1450.9      0.70951    
    1451.6      0.70979    
    1452.3      0.71007    
    1453.0      0.71035    
    1453.7      0.71062    
    1454.4      0.71090    
    1455.1      0.71118    
    1455.8      0.71146    
    1456.5      0.71173    
    1457.2      0.71201    
    1457.9      0.71228    
    1458.6      0.71256    
    1459.3      0.71283    
    1460.0      0.71311    
    1460.7      0.71338    
    1461.4      0.71366    
    1462.1      0.71393    
    1462.8      0.71421    
    1463.5      0.71448    
    1464.2      0.71475    
    1464.9      0.71502    
    1465.6      0.71530    
    1466.3      0.71557    
    1467.0      0.71584    
    1467.7      0.71611    
    1468.4      0.71638    
    1469.1      0.71665    
    1469.8      0.71692    
    1470.5      0.71719    
    1471.2      0.71746    
    1471.9      0.71773    
    1472.6      0.71800    
    1473.3      0.71827    
    1474.0      0.71854    
    1474.7      0.71881    
    1475.4      0.71907    
    1476.1      0.71934    
    1476.8      0.71961    
    1477.5      0.71988    
    1478.2      0.72014    
    1478.9      0.72041    
    1479.6      0.72067    
    1480.3      0.72094    
    1481.0      0.72121    
    1481.7      0.72147    
    1482.4      0.72173    
    1483.1      0.72200    
    1483.8      0.72226    
    1484.5      0.72253    
    1485.2      0.72279    
    1485.9      0.72305    
    1486.6      0.72332    
    1487.3      0.72358    
    1488.0      0.72384    
    1488.7      0.72410    
    1489.4      0.72436    
    1490.1      0.72462    
    1490.8      0.72488    
    1491.5      0.72515    
    1492.2      0.72541    
    1492.9      0.72567    
    1493.6      0.72592    
    1494.3      0.72618    
    1495.0      0.72644    
    1495.7      0.72670    
    1496.4      0.72696    
    1497.1      0.72722    
    1497.8      0.72748    
    1498.5      0.72774    
    1499.2      0.72800    
    1499.9      0.72826    
    1500.6      0.72851    
    1501.3      0.72877    
    1502.0      0.72903    
    1502.7      0.72929    
    1503.4      0.72954    
    1504.1      0.72980    
    1504.8      0.73005    
    1505.5      0.73031    
    1506.2      0.73056    
    1506.9      0.73082    
    1507.6      0.73107    
    1508.3      0.73133    
    1509.0      0.73158    
    1509.7      0.73184    
    1510.4      0.73209    
    1511.1      0.73234    
    1511.8      0.73260    
    1512.5      0.73285    
    1513.2      0.73310    
    1513.9      0.73335    
    1514.6      0.73360    
    1515.3      0.73385    
    1516.0      0.73411    
    1516.7      0.73436    
    1517.4      0.73461    
    1518.1      0.73486    
    1518.8      0.73511    
    1519.5      0.73536    
    1520.2      0.73561    
    1520.9      0.73585    
    1521.6      0.73610    
    1522.3      0.73635    
    1523.0      0.73660    
    1523.7      0.73685    
    1524.4      0.73709    
    1525.1      0.73734    
    1525.8      0.73759    
    1526.5      0.73783    
    1527.2      0.73808    
    1527.9      0.73833    
    1528.6      0.73857    
    1529.3      0.73882    
    1530.0      0.73906    
    1530.7      0.73931    
    1531.4      0.73955    
    1532.1      0.73979    
    1532.8      0.74004    
    1533.5      0.74028    
    1534.2      0.74052    
    1534.9      0.74077    
    1535.6      0.74101    
    1536.3      0.74125    
    1537.0      0.74149    
    1537.7      0.74174    
    1538.4      0.74198    
    1539.1      0.74222    
    1539.8      0.74246    
    1540.5      0.74270    
    1541.2      0.74294    
    1541.9      0.74318    
    1542.6      0.74342    
    1543.3      0.74366    
    1544.0      0.74390    
    1544.7      0.74414    
    1545.4      0.74438    
    1546.1      0.74461    
    1546.8      0.74485    
    1547.5      0.74509    
    1548.2      0.74533    
    1548.9      0.74556    
    1549.6      0.74580    
    1550.3      0.74604    
    1551.0      0.74627    
    1551.7      0.74651    
    1552.4      0.74675    
    1553.1      0.74698    
    1553.8      0.74722    
    1554.5      0.74745    
    1555.2      0.74769    
    1555.9      0.74792    
    1556.6      0.74815    
    1557.3      0.74839    
    1558.0      0.74862    
    1558.7      0.74886    
    1559.4      0.74909    
    1560.1      0.74932    
    1560.8      0.74955    
    1561.5      0.74978    
    1562.2      0.75002    
    1562.9      0.75025    
    1563.6      0.75048    
    1564.3      0.75071    
    1565.0      0.75094    
    1565.7      0.75117    
    1566.4      0.75140    
    1567.1      0.75163    
    1567.8      0.75186    
    1568.5      0.75209    
    1569.2      0.75232    
    1569.9      0.75255    
    1570.6      0.75278    
    1571.3      0.75300    
    1572.0      0.75323    
    1572.7      0.75346    
    1573.4      0.75369    
    1574.1      0.75391    
    1574.8      0.75414    
    1575.5      0.75437    
    1576.2      0.75459    
    1576.9      0.75482    
    1577.6      0.75504    
    1578.3      0.75527    
    1579.0      0.75549    
    1579.7      0.75572    
    1580.4      0.75594    
    1581.1      0.75617    
    1581.8      0.75639    
    1582.5      0.75662    
    1583.2      0.75684    
    1583.9      0.75706    
    1584.6      0.75729    
    1585.3      0.75751    
    1586.0      0.75773    
    1586.7      0.75795    
    1587.4      0.75817    
    1588.1      0.75840    
    1588.8      0.75862    
    1589.5      0.75884    
    1590.2      0.75906    
    1590.9      0.75928    
    1591.6      0.75950    
    1592.3      0.75972    
    1593.0      0.75994    
    1593.7      0.76016    
    1594.4      0.76038    
    1595.1      0.76060    
    1595.8      0.76082    
    1596.5      0.76103    
    1597.2      0.76125    
    1597.9      0.76147    
    1598.6      0.76169    
    1599.3      0.76191    
    1600.0      0.76212    
  






